###################################################################
## OUTPUT of StarlightChains_v04.for    [Cid@UFSC - 01/Apr/2007] ##
###################################################################

## Some input info
M33_LS3_20211119f_3.spec                 [arq_obs]
Base.BC03.N                              [arq_base]
Mask.EmLines_CHAOS_focusbluefit.gm       [arq_masks]
StCv04.C11.config                        [arq_config]
   45                                    [N_base]
    0                                    [N_YAV_components = # of components with extra extinction!]
    0                                    [i_FitPowerLaw (1/0 = Yes/No)]
-9.99                                    [alpha_PowerLaw]
CCM                                      [red_law_option]
 1.458241                                [q_norm = A(l_norm)/A(V)]

## (Re)Sampling Parameters
 3100.00                                 [l_ini (A)]
 5300.00                                 [l_fin (A)]
    1.00                                 [dl    (A)]     (OBS: dl_cushion =    50.00 A)

## Normalization info
 4020.00                                 [l_norm (A) - for base]
 4010.00                                 [llow_norm (A) - window for f_obs]
 4060.00                                 [lupp_norm (A) - window for f_obs]
5.775858E-16                             [fobs_norm (in input units)]

## S/N
 4730.00                                 [llow_SN (A) - window for S/N]
 4780.00                                 [lupp_SN (A) - window for S/N]
  38.730                                 [S/N in S/N window]
  61.380                                 [S/N in norm. window]
  17.738                                 [S/N_err in S/N window]
  28.112                                 [S/N_err in norm. window]
  1.0000                                 [fscale_chi2]

## etc...
    -2007204                             [idum_orig]
  1493                                   [NOl_eff]
  1475                                   [Nl_eff]
    18    NSIGMA                         [Ntot_cliped & clip_method]
   485520                                [Nglobal_steps]
   7                                     [N_chains]
   6                                     [NEX0s_base = N_base in EX0s-fits]
 0   0   1        0   2.0   3.842E+01    [Clip-Bug, RC-Crash & Burn-In warning-flags, n_censored_weights, wei_nsig_threshold & wei_limit]
    10      4.852      4.821      0.031  [idt_all, wdt_TotTime, wdt_UsrTime & wdt_SysTime (sec)]

## Synthesis Results - Best model ##

 7.93641E-01                             [chi2/Nl_eff]
     4.27142                             [adev (%)]

   104.66719                             [sum-of-x (%)]
 5.53485E-16                             [Flux_tot (units of input spectrum!)]
 7.40879E-12                             [Mini_tot (???)]
 3.74665E-12                             [Mcor_tot (???)]

  89.35                                  [v0_min  (km/s)]
 150.00                                  [vd_min  (km/s)]
-0.0657                                  [AV_min  (mag)]
 0.0000                                  [YAV_min (mag)]

# j     x_j(%)      Mini_j(%)     Mcor_j(%)     age_j(yr)     Z_j      (L/M)_j    YAV?  Mstars   component_j        a/Fe...       SSP_chi2r SSP_adev(%)   SSP_AV   SSP_x(%)
  1     97.0012     6.2150E-01    1.2290E+00    1.000000E+06  0.00400  1.114E-02    0   1.0000   age020_m42            0.0000     1.1348E+00     5.0401   0.5532   105.4573
  2      0.0000     0.0000E+00    0.0000E+00    3.160000E+06  0.00400  4.073E-02    0   0.9999   age045_m42            0.0000     5.8214E+00    12.0452  -0.5534   120.3631
  3      0.0000     0.0000E+00    0.0000E+00    5.010000E+06  0.00400  2.534E-02    0   0.9488   age055_m42            0.0000     3.3282E+00     9.0788  -0.0813   113.8947
  4      0.0000     0.0000E+00    0.0000E+00    1.000000E+07  0.00400  1.271E-02    0   0.8862   age070_m42            0.0000     4.4633E+00    10.1751  -0.7582   116.9854
  5      0.0000     0.0000E+00    0.0000E+00    2.512000E+07  0.00400  5.070E-03    0   0.8174   age090_m42            0.0000     4.7964E+00    10.6855  -0.9180   118.9399
  6      0.0000     0.0000E+00    0.0000E+00    4.000000E+07  0.00400  3.505E-03    0   0.7851   age104_m42            0.0000     6.3065E+00    12.0386  -1.0000   118.4635
  7      0.0000     0.0000E+00    0.0000E+00    1.015200E+08  0.00400  2.268E-03    0   0.7207   age116_m42            0.0000     1.9296E+01    20.3305  -1.0000   123.0686
  8      0.0000     0.0000E+00    0.0000E+00    2.861200E+08  0.00400  1.079E-03    0   0.6613   age125_m42            0.0000     2.6079E+01    23.0187  -1.0000   116.3013
  9      0.0000     0.0000E+00    0.0000E+00    6.405400E+08  0.00400  5.077E-04    0   0.6197   age132_m42            0.0000     3.1642E+01    25.8740  -1.0000   113.1236
 10      0.0000     0.0000E+00    0.0000E+00    9.047900E+08  0.00400  3.535E-04    0   0.6024   age135_m42            0.0000     3.3014E+01    27.2325  -1.0000   108.1346
 11      0.0000     0.0000E+00    0.0000E+00    1.434000E+09  0.00400  1.910E-04    0   0.5716   age139_m42            0.0000     3.9936E+01    31.4745  -1.0000    96.1632
 12      0.0000     0.0000E+00    0.0000E+00    2.500000E+09  0.00400  9.818E-05    0   0.5463   age150_m42            0.0000     4.4943E+01    34.8624  -1.0000    86.9651
 13      0.0000     0.0000E+00    0.0000E+00    5.000000E+09  0.00400  4.718E-05    0   0.5228   age161_m42            0.0000     4.8879E+01    36.9654  -1.0000    81.3310
 14      0.0000     0.0000E+00    0.0000E+00    1.100000E+10  0.00400  2.205E-05    0   0.4980   age185_m42            0.0000     5.6761E+01    40.1428  -1.0000    74.1057
 15      0.0000     0.0000E+00    0.0000E+00    1.300000E+10  0.00400  1.883E-05    0   0.4927   age193_m42            0.0000     5.7393E+01    40.3798  -1.0000    73.6876
 16      0.0000     0.0000E+00    0.0000E+00    1.000000E+06  0.02000  1.989E-02    0   1.0000   age020_m62            0.0000     1.2430E+00     5.2476   0.5174   106.2519
 17      0.0000     0.0000E+00    0.0000E+00    3.160000E+06  0.02000  3.772E-02    0   0.9858   age045_m62            0.0000     1.7083E+00     6.3916   0.3463   109.0306
 18      0.0000     0.0000E+00    0.0000E+00    5.010000E+06  0.02000  3.227E-02    0   0.9342   age055_m62            0.0000     5.2311E+00    11.5912  -0.2959   117.1535
 19      0.0000     0.0000E+00    0.0000E+00    1.000000E+07  0.02000  1.011E-02    0   0.8751   age070_m62            0.0000     2.2111E+00     6.9779  -0.5376   113.3368
 20      0.0000     0.0000E+00    0.0000E+00    2.512000E+07  0.02000  4.206E-03    0   0.8099   age090_m62            0.0000     2.6713E+00     7.9681  -0.7268   114.2288
 21      0.0000     0.0000E+00    0.0000E+00    4.000000E+07  0.02000  3.373E-03    0   0.7799   age104_m62            0.0000     7.0987E+00    13.0891  -1.0000   121.6388
 22      0.0000     0.0000E+00    0.0000E+00    1.015200E+08  0.02000  1.878E-03    0   0.7221   age116_m62            0.0000     1.7228E+01    19.6802  -1.0000   124.6094
 23      0.0000     0.0000E+00    0.0000E+00    2.861200E+08  0.02000  8.869E-04    0   0.6700   age125_m62            0.0000     3.0973E+01    25.0168  -1.0000   120.4993
 24      0.0000     0.0000E+00    0.0000E+00    6.405400E+08  0.02000  3.657E-04    0   0.6322   age132_m62            0.0000     3.8341E+01    29.3574  -1.0000   109.3505
 25      0.0000     0.0000E+00    0.0000E+00    9.047900E+08  0.02000  2.312E-04    0   0.6152   age135_m62            0.0000     4.1885E+01    31.7077  -1.0000   100.9476
 26      0.0000     0.0000E+00    0.0000E+00    1.434000E+09  0.02000  1.168E-04    0   0.5865   age139_m62            0.0000     4.7552E+01    35.7603  -1.0000    88.1919
 27      0.0000     0.0000E+00    0.0000E+00    2.500000E+09  0.02000  5.505E-05    0   0.5610   age150_m62            0.0000     5.6742E+01    39.8369  -1.0000    78.0426
 28      0.0000     0.0000E+00    0.0000E+00    5.000000E+09  0.02000  2.596E-05    0   0.5353   age161_m62            0.0000     6.6904E+01    43.3679  -1.0000    70.6258
 29      0.0000     0.0000E+00    0.0000E+00    1.100000E+10  0.02000  1.169E-05    0   0.5103   age185_m62            0.0000     7.7572E+01    46.6071  -1.0000    64.0285
 30      0.0000     0.0000E+00    0.0000E+00    1.300000E+10  0.02000  9.691E-06    0   0.5047   age193_m62            0.0000     7.8989E+01    47.0010  -1.0000    63.2766
 31      0.0000     0.0000E+00    0.0000E+00    1.000000E+06  0.05000  2.651E-02    0   0.9998   age020_m72            0.0000     1.3484E+00     5.4578   0.4892   107.1918
 32      0.0000     0.0000E+00    0.0000E+00    3.160000E+06  0.05000  4.817E-02    0   0.9577   age045_m72            0.0000     2.9907E+00     8.6620   0.1056   113.1446
 33      0.0000     0.0000E+00    0.0000E+00    5.010000E+06  0.05000  3.101E-02    0   0.9147   age055_m72            0.0000     3.3054E+00     8.9731  -0.1867   115.4255
 34      0.0000     0.0000E+00    0.0000E+00    1.000000E+07  0.05000  8.954E-03    0   0.8524   age070_m72            0.0000     3.0115E+00     8.4819  -0.0126   114.3291
 35      0.0000     0.0000E+00    0.0000E+00    2.512000E+07  0.05000  4.207E-03    0   0.7902   age090_m72            0.0000     5.7133E+00    12.0813  -0.5209   120.1757
 36      0.0000     0.0000E+00    0.0000E+00    4.000000E+07  0.05000  3.198E-03    0   0.7618   age104_m72            0.0000     1.1713E+01    16.7853  -1.0000   125.9141
 37      0.0000     0.0000E+00    0.0000E+00    1.015200E+08  0.05000  1.716E-03    0   0.7092   age116_m72            0.0000     1.9643E+01    21.4236  -1.0000   125.7180
 38      0.0000     0.0000E+00    0.0000E+00    2.861200E+08  0.05000  7.047E-04    0   0.6618   age125_m72            0.0000     3.4027E+01    26.3289  -1.0000   116.4828
 39      0.0000     0.0000E+00    0.0000E+00    6.405400E+08  0.05000  2.633E-04    0   0.6253   age132_m72            0.0000     4.3613E+01    32.0886  -1.0000   100.7120
 40      0.0000     0.0000E+00    0.0000E+00    9.047900E+08  0.05000  1.484E-04    0   0.6088   age135_m72            0.0000     5.0945E+01    36.7088  -1.0000    86.5803
 41      0.0000     0.0000E+00    0.0000E+00    1.434000E+09  0.05000  7.827E-05    0   0.5847   age139_m72            0.0000     6.0862E+01    41.1121  -1.0000    75.6643
 42      0.0000     0.0000E+00    0.0000E+00    2.500000E+09  0.05000  3.759E-05    0   0.5583   age150_m72            0.0000     6.9739E+01    44.2671  -1.0000    68.6275
 43      0.0000     0.0000E+00    0.0000E+00    5.000000E+09  0.05000  1.548E-05    0   0.5320   age161_m72            0.0000     7.9959E+01    47.3090  -1.0000    60.9765
 44      1.4198     1.5515E+01    1.5554E+01    1.100000E+10  0.05000  6.532E-06    0   0.5070   age185_m72            0.0000     9.0627E+01    50.1194  -1.0000    53.8424
 45      6.2461     8.3864E+01    8.3217E+01    1.300000E+10  0.05000  5.316E-06    0   0.5018   age193_m72            0.0000     9.4051E+01    50.9438  -1.0000    51.7628


## Synthesis Results - Average & Chains ##

# j      x_j: min, <> & last-chain-values for 1 ...  7 chains
  1     97.0012     84.6664     85.5722     85.2591     87.9287     85.8994     89.5829     94.2802     93.7776
  2      0.0000      0.0079      0.0000      0.0000      0.0000      0.0000      0.0000      0.0000      0.0000
  3      0.0000      0.0392      0.0000      0.0000      0.0000      0.0000      0.0000      0.0000      0.0000
  4      0.0000      0.0120      0.0000      0.0000      0.0000      0.0000      0.0000      0.0000      0.0000
  5      0.0000      0.0147      0.0000      0.0000      0.0000      0.0000      0.0000      0.0000      0.0000
  6      0.0000      0.0159      0.0000      0.0000      0.0000      0.0000      0.0000      0.0000      0.0000
  7      0.0000      0.0050      0.0000      0.0000      0.0000      0.0000      0.0000      0.0000      0.0000
  8      0.0000      0.0024      0.0000      0.0000      0.0000      0.0000      0.0000      0.0000      0.0000
  9      0.0000      0.0047      0.0000      0.0000      0.0000      0.0000      0.0000      0.0000      0.0000
 10      0.0000      0.0039      0.0000      0.0000      0.0000      0.0000      0.0000      0.0000      0.0000
 11      0.0000      0.0109      0.0000      0.0000      0.0000      0.0000      0.0000      0.0000      0.0000
 12      0.0000      0.0469      0.0000      0.0000      0.0000      0.0000      0.0796      0.0000      0.0000
 13      0.0000      0.0473      0.0000      0.0000      0.0000      0.0000      0.0000      0.0000      0.0000
 14      0.0000      0.0374      0.0000      0.0000      0.0000      0.0000      0.0000      0.0000      0.0000
 15      0.0000      0.0437      0.0000      0.0000      0.0000      0.0000      0.0000      0.0000      0.0000
 16      0.0000     10.4869     10.4882     11.1224      8.3221      9.3131      6.8978      1.1881      1.9589
 17      0.0000      0.4144      0.0000      0.0000      0.0000      1.1718      0.0000      0.1605      0.1280
 18      0.0000      0.0170      0.0000      0.0000      0.0000      0.0000      0.0000      0.0000      0.0000
 19      0.0000      0.0350      0.0000      0.0000      0.0000      0.0000      0.0000      0.0000      0.0000
 20      0.0000      0.0761      0.0000      0.0000      0.0000      0.0000      0.0000      0.0000      0.0000
 21      0.0000      0.0064      0.0000      0.0000      0.0000      0.0000      0.0000      0.0000      0.0000
 22      0.0000      0.0062      0.0000      0.0000      0.0000      0.0000      0.0000      0.0000      0.0000
 23      0.0000      0.0024      0.0000      0.0000      0.0000      0.0000      0.0000      0.0000      0.0000
 24      0.0000      0.0036      0.0000      0.0000      0.0000      0.0000      0.0000      0.0000      0.0000
 25      0.0000      0.0076      0.0000      0.0000      0.0000      0.0000      0.0000      0.0000      0.0000
 26      0.0000      0.0256      0.0000      0.0000      0.0000      0.0409      0.0000      0.0000      0.0000
 27      0.0000      0.0425      0.0000      0.0000      0.0000      0.0000      0.0000      0.3312      0.3518
 28      0.0000      0.1034      0.0000      0.0000      0.0000      0.0000      0.0000      0.0000      0.0507
 29      0.0000      0.9619      0.8784      1.0511      0.5221      0.9016      0.7486      0.6874      0.9032
 30      0.0000      0.1671      0.1592      0.0000      0.3303      0.0000      0.0000      0.4040      0.0000
 31      0.0000      0.5192      0.5504      0.0000      0.0000      0.0000      0.0000      0.8555      0.8632
 32      0.0000      0.0666      0.0000      0.0000      0.0000      0.0000      0.0000      0.0000      0.0000
 33      0.0000      0.0351      0.0000      0.0000      0.0000      0.0000      0.0000      0.0000      0.0000
 34      0.0000      0.0645      0.0000      0.0000      0.0000      0.0000      0.1800      0.0000      0.0000
 35      0.0000      0.0218      0.0000      0.0000      0.0000      0.0000      0.0000      0.0000      0.0000
 36      0.0000      0.0022      0.0000      0.0000      0.0000      0.0000      0.0000      0.0000      0.0000
 37      0.0000      0.0039      0.0000      0.0000      0.0000      0.0000      0.0000      0.0000      0.0000
 38      0.0000      0.0031      0.0000      0.0000      0.0000      0.0000      0.0032      0.0000      0.0000
 39      0.0000      0.0049      0.0000      0.0000      0.0000      0.0000      0.0000      0.0000      0.0000
 40      0.0000      0.0106      0.0729      0.0000      0.0207      0.0000      0.0000      0.0000      0.0000
 41      0.0000      0.0387      0.0000      0.1447      0.0000      0.1448      0.0000      0.0000      0.0000
 42      0.0000      0.1738      0.0000      0.0000      0.0000      0.4238      0.0000      0.0000      0.5224
 43      0.0000      1.3463      1.3390      1.6470      1.4442      1.0878      1.5696      1.4133      0.8622
 44      1.4198      1.9744      2.0936      2.1228      2.2948      1.6194      2.0258      1.5299      1.5354
 45      6.2461      3.4806      3.7823      3.5412      3.9559      4.3325      3.8649      4.0148      3.8519

# j      m_j: min, <> & last-chain-values for 1 ...  7 chains
  1  1.2290E+00  1.2764E+00  1.2376E+00  1.2530E+00  1.2152E+00  1.2294E+00  1.3022E+00  1.3891E+00  1.4697E+00
  2  0.0000E+00  3.2460E-05  0.0000E+00  0.0000E+00  0.0000E+00  0.0000E+00  0.0000E+00  0.0000E+00  0.0000E+00
  3  0.0000E+00  2.4642E-04  0.0000E+00  0.0000E+00  0.0000E+00  0.0000E+00  0.0000E+00  0.0000E+00  0.0000E+00
  4  0.0000E+00  1.4032E-04  0.0000E+00  0.0000E+00  0.0000E+00  0.0000E+00  0.0000E+00  0.0000E+00  0.0000E+00
  5  0.0000E+00  3.9726E-04  0.0000E+00  0.0000E+00  0.0000E+00  0.0000E+00  0.0000E+00  0.0000E+00  0.0000E+00
  6  0.0000E+00  5.9845E-04  0.0000E+00  0.0000E+00  0.0000E+00  0.0000E+00  0.0000E+00  0.0000E+00  0.0000E+00
  7  0.0000E+00  2.6876E-04  0.0000E+00  0.0000E+00  0.0000E+00  0.0000E+00  0.0000E+00  0.0000E+00  0.0000E+00
  8  0.0000E+00  2.5148E-04  0.0000E+00  0.0000E+00  0.0000E+00  0.0000E+00  0.0000E+00  0.0000E+00  0.0000E+00
  9  0.0000E+00  9.7105E-04  0.0000E+00  0.0000E+00  0.0000E+00  0.0000E+00  0.0000E+00  0.0000E+00  0.0000E+00
 10  0.0000E+00  1.1131E-03  0.0000E+00  0.0000E+00  0.0000E+00  0.0000E+00  0.0000E+00  0.0000E+00  0.0000E+00
 11  0.0000E+00  5.5012E-03  0.0000E+00  0.0000E+00  0.0000E+00  0.0000E+00  0.0000E+00  0.0000E+00  0.0000E+00
 12  0.0000E+00  4.3860E-02  0.0000E+00  0.0000E+00  0.0000E+00  0.0000E+00  7.1694E-02  0.0000E+00  0.0000E+00
 13  0.0000E+00  8.8017E-02  0.0000E+00  0.0000E+00  0.0000E+00  0.0000E+00  0.0000E+00  0.0000E+00  0.0000E+00
 14  0.0000E+00  1.4183E-01  0.0000E+00  0.0000E+00  0.0000E+00  0.0000E+00  0.0000E+00  0.0000E+00  0.0000E+00
 15  0.0000E+00  1.9204E-01  0.0000E+00  0.0000E+00  0.0000E+00  0.0000E+00  0.0000E+00  0.0000E+00  0.0000E+00
 16  0.0000E+00  8.8549E-02  8.4954E-02  9.1548E-02  6.4414E-02  7.4655E-02  5.6159E-02  9.8037E-03  1.7195E-02
 17  0.0000E+00  1.8190E-03  0.0000E+00  0.0000E+00  0.0000E+00  4.8829E-03  0.0000E+00  6.8857E-04  5.8393E-04
 18  0.0000E+00  8.2787E-05  0.0000E+00  0.0000E+00  0.0000E+00  0.0000E+00  0.0000E+00  0.0000E+00  0.0000E+00
 19  0.0000E+00  5.0835E-04  0.0000E+00  0.0000E+00  0.0000E+00  0.0000E+00  0.0000E+00  0.0000E+00  0.0000E+00
 20  0.0000E+00  2.4624E-03  0.0000E+00  0.0000E+00  0.0000E+00  0.0000E+00  0.0000E+00  0.0000E+00  0.0000E+00
 21  0.0000E+00  2.5021E-04  0.0000E+00  0.0000E+00  0.0000E+00  0.0000E+00  0.0000E+00  0.0000E+00  0.0000E+00
 22  0.0000E+00  3.9868E-04  0.0000E+00  0.0000E+00  0.0000E+00  0.0000E+00  0.0000E+00  0.0000E+00  0.0000E+00
 23  0.0000E+00  3.0513E-04  0.0000E+00  0.0000E+00  0.0000E+00  0.0000E+00  0.0000E+00  0.0000E+00  0.0000E+00
 24  0.0000E+00  1.0477E-03  0.0000E+00  0.0000E+00  0.0000E+00  0.0000E+00  0.0000E+00  0.0000E+00  0.0000E+00
 25  0.0000E+00  3.4003E-03  0.0000E+00  0.0000E+00  0.0000E+00  0.0000E+00  0.0000E+00  0.0000E+00  0.0000E+00
 26  0.0000E+00  2.1567E-02  0.0000E+00  0.0000E+00  0.0000E+00  3.2710E-02  0.0000E+00  0.0000E+00  0.0000E+00
 27  0.0000E+00  7.2815E-02  0.0000E+00  0.0000E+00  0.0000E+00  0.0000E+00  0.0000E+00  5.5396E-01  6.2588E-01
 28  0.0000E+00  3.5825E-01  0.0000E+00  0.0000E+00  0.0000E+00  0.0000E+00  0.0000E+00  0.0000E+00  1.8264E-01
 29  0.0000E+00  7.0522E+00  6.1777E+00  7.5120E+00  3.5090E+00  6.2749E+00  5.2918E+00  4.9250E+00  6.8837E+00
 30  0.0000E+00  1.4611E+00  1.3354E+00  0.0000E+00  2.6479E+00  0.0000E+00  0.0000E+00  3.4533E+00  0.0000E+00
 31  0.0000E+00  3.2885E-03  3.3443E-03  0.0000E+00  0.0000E+00  0.0000E+00  0.0000E+00  5.2954E-03  5.6836E-03
 32  0.0000E+00  2.2251E-04  0.0000E+00  0.0000E+00  0.0000E+00  0.0000E+00  0.0000E+00  0.0000E+00  0.0000E+00
 33  0.0000E+00  1.7400E-04  0.0000E+00  0.0000E+00  0.0000E+00  0.0000E+00  0.0000E+00  0.0000E+00  0.0000E+00
 34  0.0000E+00  1.0308E-03  0.0000E+00  0.0000E+00  0.0000E+00  0.0000E+00  2.7749E-03  0.0000E+00  0.0000E+00
 35  0.0000E+00  6.8880E-04  0.0000E+00  0.0000E+00  0.0000E+00  0.0000E+00  0.0000E+00  0.0000E+00  0.0000E+00
 36  0.0000E+00  8.9256E-05  0.0000E+00  0.0000E+00  0.0000E+00  0.0000E+00  0.0000E+00  0.0000E+00  0.0000E+00
 37  0.0000E+00  2.6910E-04  0.0000E+00  0.0000E+00  0.0000E+00  0.0000E+00  0.0000E+00  0.0000E+00  0.0000E+00
 38  0.0000E+00  4.9465E-04  0.0000E+00  0.0000E+00  0.0000E+00  0.0000E+00  4.9254E-04  0.0000E+00  0.0000E+00
 39  0.0000E+00  1.9433E-03  0.0000E+00  0.0000E+00  0.0000E+00  0.0000E+00  0.0000E+00  0.0000E+00  0.0000E+00
 40  0.0000E+00  7.3184E-03  4.8161E-02  0.0000E+00  1.3049E-02  0.0000E+00  0.0000E+00  0.0000E+00  0.0000E+00
 41  0.0000E+00  4.8552E-02  0.0000E+00  1.7699E-01  0.0000E+00  1.7252E-01  0.0000E+00  0.0000E+00  0.0000E+00
 42  0.0000E+00  4.3343E-01  0.0000E+00  0.0000E+00  0.0000E+00  1.0037E+00  0.0000E+00  0.0000E+00  1.3546E+00
 43  0.0000E+00  7.7705E+00  7.4139E+00  9.2669E+00  7.6411E+00  5.9605E+00  8.7353E+00  7.9721E+00  5.1731E+00
 44  1.5554E+01  2.5737E+01  2.6180E+01  2.6975E+01  2.7421E+01  2.0041E+01  2.5462E+01  1.9490E+01  2.0806E+01
 45  8.3217E+01  5.5178E+01  5.7519E+01  5.4725E+01  5.7488E+01  6.5206E+01  5.9077E+01  6.2201E+01  6.3481E+01

# AV, chi2 & Mass for <> & i_chain = 1 ...  7 solutions
AV      -0.0657     -0.0848     -0.0814     -0.0879     -0.1010     -0.0928     -0.0803     -0.0749     -0.0473
chi2 7.9364E-01  8.0964E-01  8.0391E-01  8.0456E-01  8.0194E-01  8.0442E-01  8.0265E-01  8.0022E-01  8.0267E-01
Mass 3.7466E-12  3.0689E-12  3.2137E-12  3.1352E-12  3.2758E-12  3.1981E-12  3.2020E-12  3.1825E-12  3.1047E-12
  89.35                                  [v0_min (km/s) before EX0s...]
 150.00                                  [vd_min (km/s) before EX0s...]


## Synthetic spectrum (Best Model) ##l_obs f_obs f_syn wei
 2201    [Nl_obs]
 3100.00    1.92662   2.30006    3.465
 3101.00    2.07734   2.28977    3.391
 3102.00    2.17999   2.27960    3.350
 3103.00    1.94653   2.27283    3.595
 3104.00    2.05409   2.26943    3.536
 3105.00    2.09845   2.26821    3.530
 3106.00    1.90223   2.26789    3.755
 3107.00    1.58049   2.26777    4.164
 3108.00    1.94867   2.26768    3.791
 3109.00    1.93216   2.26760    3.838
 3110.00    1.78575   2.26752    4.034
 3111.00    1.89797   2.26743    3.939
 3112.00    1.98064   2.26735    3.875
 3113.00    2.04813   2.26727    3.851
 3114.00    2.07150   2.26718    3.861
 3115.00    2.04694   2.26709    3.925
 3116.00    1.93100   2.26693    4.060
 3117.00    1.72277   2.26641    4.336
 3118.00    1.72781   2.26470    4.365
 3119.00    1.80569   2.25972    4.287
 3120.00    2.12338   2.25042    3.973
 3121.00    2.20028   2.23747    3.931
 3122.00    1.95722   2.22466    4.192
 3123.00    2.03713   2.21609    4.120
 3124.00    2.21067   2.21175    3.983
 3125.00    2.16446   2.21021    4.053
 3126.00    1.91686   2.20980    4.322
 3127.00    2.19630   2.20966    4.054
 3128.00    1.90563   2.20958    4.378
 3129.00    1.76328   2.20950    4.562
 3130.00    2.07786   2.20941    4.225
 3131.00    2.07069   2.20933    4.257
 3132.00    1.96504   2.20925    4.412
 3133.00    1.96446   2.20917    4.451
 3134.00    2.19705   2.20909    4.242
 3135.00    2.21028   2.20900    4.249
 3136.00    2.04338   2.20886    4.424
 3137.00    1.81673   2.20842    4.703
 3138.00    1.72777   2.20703    4.867
 3139.00    1.88906   2.20302    4.694
 3140.00    1.92434   2.19560    4.710
 3141.00    1.95094   2.18526    4.710
 3142.00    1.91461   2.17502    4.772
 3143.00    1.95352   2.16813    4.771
 3144.00    1.97143   2.16459    4.798
 3145.00    2.00199   2.16332    4.809
 3146.00    2.07231   2.16297    4.759
 3147.00    1.96515   2.16284    4.929
 3148.00    1.88976   2.16275    5.064
 3149.00    1.91211   2.16268    5.091
 3150.00    2.03590   2.16260    4.967
 3151.00    2.14579   2.16252    4.854
 3152.00    2.24206   2.16244    4.776
 3153.00    1.94563   2.16237    5.156
 3154.00    1.97916   2.16229    5.153
 3155.00    2.14899   2.16220    4.986
 3156.00    2.12202   2.16206    5.068
 3157.00    1.93316   2.16160    5.346
 3158.00    1.94753   2.16019    5.344
 3159.00    2.02475   2.15611    5.270
 3160.00    1.98985   2.14861    5.344
 3161.00    2.09645   2.13815    5.236
 3162.00    2.09569   2.12779    5.254
 3163.00    1.93982   2.12079    5.492
 3164.00    1.99928   2.11714    5.433
 3165.00    2.04425   2.11584    5.412
 3166.00    1.95455   2.11547    5.560
 3167.00    1.87698   2.11534    5.681
 3168.00    1.85112   2.11526    5.751
 3169.00    1.90054   2.11518    5.719
 3170.00    1.87736   2.11511    5.766
 3171.00    1.97314   2.11503    5.661
 3172.00    1.94617   2.11496    5.715
 3173.00    1.85242   2.11489    5.880
 3174.00    1.89360   2.11481    5.849
 3175.00    1.96633   2.11473    5.741
 3176.00    1.85765   2.11458    5.932
 3177.00    1.95016   2.11405    5.804
 3178.00    1.95213   2.11240    5.809
 3179.00    1.90086   2.10764    5.913
 3180.00    1.95973   2.09894    5.865
 3181.00    1.97526   2.08681    5.864
 3182.00    1.99732   2.07476    5.857
 3183.00    1.99641   2.06658    5.866
 3184.00    1.96257   2.06228    5.943
 3185.00    1.96869   2.06075    5.943
 3186.00    2.05743   2.06031    5.834
 3187.00    2.22065   2.06017    5.631
 3188.00    2.43129   2.06010    5.409
 3189.00    2.74270   2.06003   -1.000
 3190.00    2.84775   2.05996   -1.000
 3191.00    2.52811   2.05989    5.396
 3192.00    2.13954   2.05982    5.890
 3193.00    1.97645   2.05975    6.157
 3194.00    1.94628   2.05968    6.245
 3195.00    1.83793   2.05960    6.465
 3196.00    1.75470   2.05945    6.652
 3197.00    1.79190   2.05893    6.617
 3198.00    1.90970   2.05731    6.443
 3199.00    1.85541   2.05265    6.588
 3200.00    1.80942   2.04419    6.710
 3201.00    1.75785   2.03237    6.833
 3202.00    1.66595   2.02064    7.067
 3203.00    1.55199   2.01263   -1.000
 3204.00    1.48023   2.00837   -1.000
 3205.00    1.64538   2.00685    7.187
 3206.00    1.87756   2.00640    6.784
 3207.00    1.86678   2.00627    6.826
 3208.00    1.81036   2.00619    6.939
 3209.00    1.71157   2.00613    7.110
 3210.00    1.90110   2.00606    6.758
 3211.00    1.99207   2.00600    6.607
 3212.00    1.93966   2.00593    6.683
 3213.00    2.01663   2.00587    6.573
 3214.00    2.10638   2.00580    6.426
 3215.00    2.12026   2.00573    6.407
 3216.00    2.00915   2.00562    6.588
 3217.00    2.08688   2.00528    6.470
 3218.00    2.03630   2.00429    6.539
 3219.00    2.03368   2.00151    6.554
 3220.00    1.88849   1.99650    6.802
 3221.00    1.81078   1.98952    6.958
 3222.00    1.93838   1.98258    6.743
 3223.00    1.90913   1.97780    6.806
 3224.00    1.96787   1.97523    6.705
 3225.00    1.95931   1.97429    6.739
 3226.00    2.05954   1.97399    6.627
 3227.00    1.95320   1.97389    6.831
 3228.00    1.86950   1.97382    7.015
 3229.00    1.83587   1.97376    7.094
 3230.00    1.90649   1.97369    6.977
 3231.00    1.84521   1.97363    7.147
 3232.00    1.82045   1.97357    7.237
 3233.00    1.97373   1.97351    6.962
 3234.00    1.99336   1.97345    6.927
 3235.00    1.96144   1.97338    6.996
 3236.00    1.98182   1.97327    6.978
 3237.00    1.99360   1.97290    6.971
 3238.00    1.99457   1.97184    6.981
 3239.00    1.96792   1.96884    7.036
 3240.00    2.05946   1.96348    6.851
 3241.00    1.99281   1.95600    6.952
 3242.00    1.94558   1.94855    7.042
 3243.00    1.90612   1.94340    7.099
 3244.00    1.89256   1.94059    7.101
 3245.00    1.93621   1.93958    7.050
 3246.00    1.86462   1.93925    7.200
 3247.00    1.83211   1.93915    7.268
 3248.00    1.94820   1.93908    7.027
 3249.00    1.92041   1.93902    7.075
 3250.00    1.87747   1.93897    7.137
 3251.00    1.88427   1.93891    7.150
 3252.00    1.83060   1.93885    7.287
 3253.00    1.83986   1.93880    7.282
 3254.00    1.86486   1.93874    7.244
 3255.00    1.84109   1.93867    7.294
 3256.00    1.83698   1.93855    7.348
 3257.00    1.86957   1.93813    7.307
 3258.00    1.87929   1.93689    7.305
 3259.00    1.90579   1.93337    7.285
 3260.00    1.87985   1.92711    7.359
 3261.00    1.84472   1.91837    7.458
 3262.00    1.88942   1.90967    7.429
 3263.00    1.88380   1.90362    7.502
 3264.00    1.97580   1.90029    7.360
 3265.00    1.92457   1.89910    7.478
 3266.00    1.94766   1.89871    7.390
 3267.00    1.95118   1.89860    7.345
 3268.00    1.90183   1.89854    7.493
 3269.00    1.89991   1.89848    7.529
 3270.00    1.96467   1.89843    7.454
 3271.00    1.94315   1.89838    7.506
 3272.00    1.89709   1.89832    7.592
 3273.00    1.91298   1.89827    7.580
 3274.00    1.98745   1.89822    7.464
 3275.00    1.86063   1.89816    7.729
 3276.00    1.85573   1.89805    7.771
 3277.00    1.94438   1.89764    7.603
 3278.00    1.96436   1.89648    7.580
 3279.00    1.93924   1.89322    7.646
 3280.00    1.91240   1.88744    7.747
 3281.00    1.83944   1.87936    7.884
 3282.00    1.78720   1.87131    7.976
 3283.00    1.87200   1.86569    7.834
 3284.00    1.88863   1.86256    7.831
 3285.00    1.95685   1.86143    7.755
 3286.00    2.01406   1.86106    7.688
 3287.00    1.92314   1.86095    7.910
 3288.00    1.87013   1.86090    8.053
 3289.00    1.93919   1.86085    7.924
 3290.00    1.95060   1.86080    7.940
 3291.00    1.93895   1.86075    7.988
 3292.00    1.93494   1.86070    8.023
 3293.00    1.93270   1.86065    8.064
 3294.00    2.00217   1.86060    7.950
 3295.00    2.01355   1.86054    7.946
 3296.00    2.03163   1.86042    7.902
 3297.00    1.98329   1.85997    7.995
 3298.00    1.94970   1.85866    8.085
 3299.00    1.88005   1.85498    8.278
 3300.00    1.87719   1.84849    8.273
 3301.00    1.99636   1.83942    8.029
 3302.00    1.99926   1.83037    8.024
 3303.00    1.87288   1.82402    8.317
 3304.00    1.84652   1.82044    8.383
 3305.00    1.83402   1.81916    8.383
 3306.00    1.78724   1.81874    8.516
 3307.00    1.86046   1.81862    8.325
 3308.00    1.91722   1.81857    8.200
 3309.00    1.80149   1.81852    8.467
 3310.00    1.77445   1.81848    8.566
 3311.00    1.78545   1.81842    8.557
 3312.00    1.80394   1.81834    8.523
 3313.00    1.82477   1.81807    8.474
 3314.00    1.88201   1.81732    8.370
 3315.00    1.88247   1.81527    8.381
 3316.00    1.88322   1.81168    8.389
 3317.00    1.79540   1.80667    8.590
 3318.00    1.81206   1.80167    8.564
 3319.00    1.88885   1.79816    8.436
 3320.00    1.92632   1.79628    8.408
 3321.00    1.87014   1.79580    8.529
 3322.00    1.90479   1.79626    8.449
 3323.00    1.91137   1.79627    8.433
 3324.00    1.91138   1.79572    8.473
 3325.00    1.85208   1.79216    8.620
 3326.00    1.83739   1.78690    8.639
 3327.00    1.79267   1.77985    8.789
 3328.00    1.79055   1.77357    8.808
 3329.00    1.79033   1.76890    8.798
 3330.00    1.80498   1.76631    8.770
 3331.00    1.83666   1.76446    8.684
 3332.00    1.82042   1.76139    8.748
 3333.00    1.84675   1.75610    8.691
 3334.00    1.87081   1.74852    8.641
 3335.00    1.86878   1.74000    8.634
 3336.00    1.81813   1.73189    8.785
 3337.00    1.79671   1.72461    8.851
 3338.00    1.86047   1.71866    8.683
 3339.00    1.84466   1.71334    8.640
 3340.00    1.89366   1.70980    8.521
 3341.00    1.90909   1.70884    8.528
 3342.00    1.79987   1.71311    8.775
 3343.00    1.72668   1.72181    8.995
 3344.00    1.83824   1.73460    8.748
 3345.00    1.88015   1.74717    8.659
 3346.00    1.82352   1.75742    8.811
 3347.00    1.82576   1.76186    8.856
 3348.00    1.84475   1.75904    8.813
 3349.00    1.77067   1.74687    9.011
 3350.00    1.80270   1.72984    8.985
 3351.00    1.83596   1.71058    8.923
 3352.00    1.91683   1.69739    8.751
 3353.00    1.88584   1.68938    8.850
 3354.00    1.89754   1.68593    8.828
 3355.00    1.94128   1.68426    8.730
 3356.00    1.91912   1.68374    8.830
 3357.00    1.87889   1.68515    8.960
 3358.00    1.87371   1.68747    8.994
 3359.00    1.82036   1.69007    9.164
 3360.00    1.81212   1.69144    9.185
 3361.00    1.86560   1.69217    9.077
 3362.00    1.87136   1.69142    9.110
 3363.00    1.81332   1.68944    9.293
 3364.00    1.84039   1.68466    9.204
 3365.00    1.78794   1.67749    9.334
 3366.00    1.76808   1.66810    9.411
 3367.00    1.83909   1.65890    9.253
 3368.00    1.83339   1.65195    9.290
 3369.00    1.83791   1.64894    9.289
 3370.00    1.82681   1.64903    9.325
 3371.00    1.84402   1.65044    9.298
 3372.00    1.88788   1.65068    9.193
 3373.00    1.83562   1.64979    9.338
 3374.00    1.76846   1.64992    9.513
 3375.00    1.77653   1.65145    9.525
 3376.00    1.79273   1.65365    9.539
 3377.00    1.78511   1.65437    9.603
 3378.00    1.76766   1.65291    9.641
 3379.00    1.83881   1.65228    9.443
 3380.00    1.79329   1.65363    9.550
 3381.00    1.69131   1.65836    9.854
 3382.00    1.65196   1.66415   10.006
 3383.00    1.71996   1.66941    9.811
 3384.00    1.70316   1.67358    9.839
 3385.00    1.65726   1.67659    9.958
 3386.00    1.71081   1.67974    9.813
 3387.00    1.72480   1.68193    9.773
 3388.00    1.72434   1.68226    9.748
 3389.00    1.69017   1.68052    9.863
 3390.00    1.73151   1.67692    9.718
 3391.00    1.73762   1.67436    9.696
 3392.00    1.71070   1.67372    9.800
 3393.00    1.77077   1.67644    9.672
 3394.00    1.78602   1.68022    9.639
 3395.00    1.81181   1.68323    9.563
 3396.00    1.71617   1.68149    9.728
 3397.00    1.70858   1.67407    9.658
 3398.00    1.80619   1.66113    9.445
 3399.00    1.78260   1.64642    9.562
 3400.00    1.77386   1.63248    9.615
 3401.00    1.79162   1.62266    9.609
 3402.00    1.81238   1.61696    9.538
 3403.00    1.83413   1.61354    9.518
 3404.00    1.78902   1.61139    9.666
 3405.00    1.75808   1.60962    9.779
 3406.00    1.72380   1.60841    9.893
 3407.00    1.71818   1.60764    9.951
 3408.00    1.78738   1.60786    9.774
 3409.00    1.74610   1.60851    9.934
 3410.00    1.73030   1.60834   10.017
 3411.00    1.75532   1.60735    9.940
 3412.00    1.72924   1.60512    9.933
 3413.00    1.68584   1.60470   10.076
 3414.00    1.70690   1.60654   10.054
 3415.00    1.76428   1.61046    9.925
 3416.00    1.77957   1.61502    9.937
 3417.00    1.82115   1.61859    9.842
 3418.00    1.80426   1.62127    9.922
 3419.00    1.82749   1.62283    9.872
 3420.00    1.77753   1.62386   10.003
 3421.00    1.73075   1.62425   10.123
 3422.00    1.82954   1.62430    9.836
 3423.00    1.73458   1.62375   10.110
 3424.00    1.70905   1.62279   10.196
 3425.00    1.79286   1.62155    9.975
 3426.00    1.79115   1.62046    9.970
 3427.00    1.79405   1.62026    9.937
 3428.00    1.76367   1.62062   10.027
 3429.00    1.68090   1.62078   10.349
 3430.00    1.68999   1.61984   10.317
 3431.00    1.71012   1.61732   10.253
 3432.00    1.75824   1.61497   10.117
 3433.00    1.77936   1.61339   10.081
 3434.00    1.80340   1.61330   10.017
 3435.00    1.78816   1.61384   10.085
 3436.00    1.70722   1.61376   10.287
 3437.00    1.75958   1.61149   10.152
 3438.00    1.78290   1.60633   10.063
 3439.00    1.72589   1.59807   10.223
 3440.00    1.64224   1.58852   10.493
 3441.00    1.68019   1.57935   10.419
 3442.00    1.73922   1.57373   10.229
 3443.00    1.76316   1.57184   10.151
 3444.00    1.73134   1.57267   10.257
 3445.00    1.67290   1.57384   10.389
 3446.00    1.63859   1.57369   10.529
 3447.00    1.70466   1.57370   10.301
 3448.00    1.73643   1.57393   10.200
 3449.00    1.73420   1.57345   10.241
 3450.00    1.80515   1.57047   10.088
 3451.00    1.73405   1.56274   10.297
 3452.00    1.78963   1.55359   10.107
 3453.00    1.77103   1.54528   10.157
 3454.00    1.67514   1.54016   10.462
 3455.00    1.69373   1.53806   10.404
 3456.00    1.75234   1.53723   10.242
 3457.00    1.75467   1.53633   10.243
 3458.00    1.73158   1.53446   10.338
 3459.00    1.71992   1.53169   10.369
 3460.00    1.71312   1.52950   10.422
 3461.00    1.72929   1.52933   10.366
 3462.00    1.71776   1.53271   10.401
 3463.00    1.74164   1.53792   10.360
 3464.00    1.75830   1.54491   10.281
 3465.00    1.70694   1.54855   10.440
 3466.00    1.65322   1.55064   10.629
 3467.00    1.67622   1.55058   10.583
 3468.00    1.76336   1.54936   10.325
 3469.00    1.71355   1.54753   10.416
 3470.00    1.74743   1.54477   10.237
 3471.00    1.75778   1.54180   10.251
 3472.00    1.69481   1.53804   10.414
 3473.00    1.66713   1.53476   10.476
 3474.00    1.70695   1.53181   10.389
 3475.00    1.66033   1.52746   10.530
 3476.00    1.64685   1.52057   10.572
 3477.00    1.65995   1.51094   10.553
 3478.00    1.67939   1.49990   10.489
 3479.00    1.64761   1.49072   10.565
 3480.00    1.60072   1.48567   10.759
 3481.00    1.67758   1.48456   10.539
 3482.00    1.74855   1.48541   10.337
 3483.00    1.77557   1.48610   -1.000
 3484.00    1.73760   1.48771   10.364
 3485.00    1.71890   1.49214   10.397
 3486.00    1.70375   1.50040   10.466
 3487.00    1.68718   1.51024   10.564
 3488.00    1.65472   1.51924   10.704
 3489.00    1.70778   1.52552   10.582
 3490.00    1.75401   1.52825   10.416
 3491.00    1.70688   1.52881   10.559
 3492.00    1.68093   1.52897   10.705
 3493.00    1.67695   1.52993   10.747
 3494.00    1.69084   1.53006   10.722
 3495.00    1.64129   1.52859   10.845
 3496.00    1.70235   1.52558   10.629
 3497.00    1.74628   1.52205   10.505
 3498.00    1.71100   1.51940   10.632
 3499.00    1.64333   1.51671   10.859
 3500.00    1.67676   1.51258    0.000
 3501.00    1.67681   1.50676    0.000
 3502.00    1.68081   1.50017    0.000
 3503.00    1.67483   1.49457    0.000
 3504.00    1.70660   1.48960    0.000
 3505.00    1.67539   1.48441    0.000
 3506.00    1.69967   1.47921    0.000
 3507.00    1.65971   1.47547    0.000
 3508.00    1.58710   1.47376    0.000
 3509.00    1.56415   1.47361    0.000
 3510.00    1.53093   1.47341    0.000
 3511.00    1.61096   1.47231    0.000
 3512.00    1.69203   1.47017    0.000
 3513.00    1.67553   1.46796    0.000
 3514.00    1.67331   1.46654    0.000
 3515.00    1.64939   1.46694    0.000
 3516.00    1.63781   1.46817    0.000
 3517.00    1.60985   1.46975    0.000
 3518.00    1.64887   1.47030    0.000
 3519.00    1.67510   1.47003    0.000
 3520.00    1.64886   1.46875    0.000
 3521.00    1.63066   1.46656    0.000
 3522.00    1.59305   1.46378    0.000
 3523.00    1.59740   1.46110    0.000
 3524.00    1.58250   1.45872    0.000
 3525.00    1.63028   1.45745    0.000
 3526.00    1.66336   1.45633    0.000
 3527.00    1.63345   1.45653    0.000
 3528.00    1.59773   1.45809    0.000
 3529.00    1.64905   1.46101    0.000
 3530.00    1.73860   1.46479    0.000
 3531.00    1.74754   1.46836    0.000
 3532.00    1.69078   1.47062    0.000
 3533.00    1.73995   1.47087    0.000
 3534.00    1.69336   1.46875    0.000
 3535.00    1.58992   1.46507    0.000
 3536.00    1.63907   1.46096    0.000
 3537.00    1.63939   1.45731    0.000
 3538.00    1.63307   1.45405    0.000
 3539.00    1.65010   1.45244    0.000
 3540.00    1.67261   1.45221    0.000
 3541.00    1.67110   1.45328    0.000
 3542.00    1.66052   1.45470    0.000
 3543.00    1.68084   1.45568    0.000
 3544.00    1.66552   1.45613    0.000
 3545.00    1.70088   1.45630    0.000
 3546.00    1.69942   1.45645    0.000
 3547.00    1.67812   1.45660    0.000
 3548.00    1.68071   1.45702    0.000
 3549.00    1.66805   1.45700    0.000
 3550.00    1.64471   1.45606    0.000
 3551.00    1.64831   1.45438    0.000
 3552.00    1.64321   1.45259    0.000
 3553.00    1.71209   1.45127    0.000
 3554.00    1.69182   1.44987    0.000
 3555.00    1.74566   1.44779    0.000
 3556.00    1.73242   1.44538    0.000
 3557.00    1.74227   1.44316    0.000
 3558.00    1.72620   1.44203    0.000
 3559.00    1.68379   1.44171    0.000
 3560.00    1.65833   1.44179    0.000
 3561.00    1.64256   1.44193    0.000
 3562.00    1.64643   1.44180    0.000
 3563.00    1.66996   1.44097    0.000
 3564.00    1.62470   1.43897    0.000
 3565.00    1.61856   1.43616    0.000
 3566.00    1.63560   1.43332    0.000
 3567.00    1.60138   1.43068    0.000
 3568.00    1.59261   1.42686    0.000
 3569.00    1.54383   1.42155    0.000
 3570.00    1.57071   1.41362    0.000
 3571.00    1.65099   1.40429    0.000
 3572.00    1.67158   1.39489    0.000
 3573.00    1.65827   1.38805    0.000
 3574.00    1.64355   1.38403    0.000
 3575.00    1.70208   1.38204    0.000
 3576.00    1.66425   1.38118    0.000
 3577.00    1.66890   1.38018    0.000
 3578.00    1.65076   1.37806    0.000
 3579.00    1.62577   1.37510    0.000
 3580.00    1.65073   1.37204    0.000
 3581.00    1.59758   1.36983    0.000
 3582.00    1.61544   1.36859    0.000
 3583.00    1.62422   1.36775    0.000
 3584.00    1.61141   1.36699    0.000
 3585.00    1.58645   1.36639    0.000
 3586.00    1.59610   1.36584    0.000
 3587.00    1.67434   1.36540    0.000
 3588.00    1.70075   1.36518    0.000
 3589.00    1.64186   1.36551    0.000
 3590.00    1.65006   1.36664    0.000
 3591.00    1.67733   1.36827    0.000
 3592.00    1.66936   1.36948    0.000
 3593.00    1.64292   1.36966    0.000
 3594.00    1.59380   1.36948    0.000
 3595.00    1.59146   1.36945    0.000
 3596.00    1.62205   1.36994    0.000
 3597.00    1.60768   1.37133    0.000
 3598.00    1.62502   1.37373    0.000
 3599.00    1.66606   1.37689    0.000
 3600.00    1.68985   1.37986    0.000
 3601.00    1.57589   1.38181    0.000
 3602.00    1.57225   1.38124    0.000
 3603.00    1.62481   1.37862    0.000
 3604.00    1.60874   1.37457    0.000
 3605.00    1.62146   1.37038    0.000
 3606.00    1.67951   1.36720    0.000
 3607.00    1.64418   1.36514    0.000
 3608.00    1.63230   1.36413    0.000
 3609.00    1.70594   1.36370    0.000
 3610.00    1.66631   1.36339    0.000
 3611.00    1.66628   1.36300    0.000
 3612.00    1.61167   1.36198    0.000
 3613.00    1.67067   1.36092    0.000
 3614.00    1.69625   1.35976    0.000
 3615.00    1.70269   1.35837    0.000
 3616.00    1.74820   1.35726    0.000
 3617.00    1.67533   1.35654    0.000
 3618.00    1.65822   1.35624    0.000
 3619.00    1.65939   1.35630    0.000
 3620.00    1.64857   1.35730    0.000
 3621.00    1.64166   1.35905    0.000
 3622.00    1.62838   1.36178    0.000
 3623.00    1.58312   1.36533    0.000
 3624.00    1.61629   1.36843    0.000
 3625.00    1.59216   1.37083    0.000
 3626.00    1.55250   1.37260    0.000
 3627.00    1.57804   1.37344    0.000
 3628.00    1.61430   1.37264    0.000
 3629.00    1.63614   1.36994    0.000
 3630.00    1.61045   1.36609    0.000
 3631.00    1.59379   1.36235    0.000
 3632.00    1.57537   1.35966    0.000
 3633.00    1.64441   1.35808    0.000
 3634.00    1.65266   1.35660    0.000
 3635.00    1.58259   1.35441    0.000
 3636.00    1.60722   1.35071    0.000
 3637.00    1.61191   1.34558    0.000
 3638.00    1.60420   1.34137    0.000
 3639.00    1.60932   1.33931    0.000
 3640.00    1.54455   1.33910    0.000
 3641.00    1.55785   1.33990    0.000
 3642.00    1.54600   1.34007    0.000
 3643.00    1.55633   1.33822    0.000
 3644.00    1.57336   1.33402    0.000
 3645.00    1.54564   1.32840    0.000
 3646.00    1.55802   1.32309    0.000
 3647.00    1.60226   1.31938    0.000
 3648.00    1.57973   1.31765    0.000
 3649.00    1.49489   1.31774    0.000
 3650.00    1.48627   1.31883    0.000
 3651.00    1.44044   1.32010    0.000
 3652.00    1.39041   1.32091    0.000
 3653.00    1.38845   1.32127    0.000
 3654.00    1.46152   1.32143    0.000
 3655.00    1.37450   1.32171    0.000
 3656.00    1.33766   1.32249    0.000
 3657.00    1.38316   1.32340    0.000
 3658.00    1.39994   1.32386    0.000
 3659.00    1.40670   1.32356    0.000
 3660.00    1.40330   1.32236    0.000
 3661.00    1.41279   1.32040    0.000
 3662.00    1.42092   1.31830    0.000
 3663.00    1.45266   1.31637    0.000
 3664.00    1.42696   1.31492    0.000
 3665.00    1.40533   1.31360    0.000
 3666.00    1.38656   1.31178    0.000
 3667.00    1.37633   1.30951    0.000
 3668.00    1.40677   1.30700    0.000
 3669.00    1.42646   1.30500    0.000
 3670.00    1.42033   1.30409    0.000
 3671.00    1.46869   1.30396    0.000
 3672.00    1.39640   1.30370    0.000
 3673.00    1.37816   1.30254    0.000
 3674.00    1.36822   1.30039    0.000
 3675.00    1.32625   1.29770    0.000
 3676.00    1.33023   1.29468    0.000
 3677.00    1.32229   1.29166    0.000
 3678.00    1.38036   1.28837    0.000
 3679.00    1.38159   1.28521    0.000
 3680.00    1.35011   1.28292    0.000
 3681.00    1.37015   1.28162    0.000
 3682.00    1.41627   1.28126    0.000
 3683.00    1.39216   1.28111    0.000
 3684.00    1.36584   1.28036    0.000
 3685.00    1.33308   1.27860    0.000
 3686.00    1.35667   1.27629    0.000
 3687.00    1.35327   1.27420    0.000
 3688.00    1.37543   1.27313    0.000
 3689.00    1.36729   1.27348    0.000
 3690.00    1.25853   1.27482    0.000
 3691.00    1.28728   1.27601    0.000
 3692.00    1.38449   1.27610    0.000
 3693.00    1.39249   1.27479    0.000
 3694.00    1.31040   1.27215    0.000
 3695.00    1.21201   1.26860    0.000
 3696.00    1.29168   1.26522    0.000
 3697.00    1.41868   1.26319    0.000
 3698.00    1.45838   1.26273    0.000
 3699.00    1.42649   1.26334    0.000
 3700.00    1.27815   1.26353    0.000
 3701.00    1.19785   1.26142    0.000
 3702.00    1.19944   1.25521    0.000
 3703.00    1.29978   1.24522    0.000
 3704.00    1.44548   1.23377    0.000
 3705.00    1.58575   1.22383    0.000
 3706.00    1.62358   1.21775    0.000
 3707.00    1.46114   1.21570    0.000
 3708.00    1.29699   1.21624    0.000
 3709.00    1.21818   1.21709    0.000
 3710.00    1.17074   1.21693    0.000
 3711.00    1.28773   1.21584    0.000
 3712.00    1.46655   1.21487    0.000
 3713.00    1.56529   1.21557    0.000
 3714.00    1.50650   1.21862    0.000
 3715.00    1.30823   1.22309    0.000
 3716.00    1.19637   1.22688    0.000
 3717.00    1.17001   1.22745    0.000
 3718.00    1.18915   1.22285    0.000
 3719.00    1.22506   1.21357    0.000
 3720.00    1.25884   1.20131    0.000
 3721.00    1.55280   1.18920    0.000
 3722.00    1.90851   1.18120    0.000
 3723.00    2.12137   1.17918    0.000
 3724.00    3.13724   1.18252    0.000
 3725.00    9.21335   1.18907    0.000
 3726.00   17.23027   1.19624    0.000
 3727.00   22.58449   1.20256    0.000
 3728.00   30.52877   1.20755    0.000
 3729.00   32.57557   1.21019    0.000
 3730.00   27.41736   1.20893    0.000
 3731.00   20.89377   1.20268    0.000
 3732.00   10.70860   1.19108    0.000
 3733.00    3.54061   1.17597    0.000
 3734.00    2.07290   1.16098    0.000
 3735.00    1.96737   1.15019    0.000
 3736.00    1.87682   1.14716    0.000
 3737.00    1.65717   1.15300    0.000
 3738.00    1.34178   1.16595    0.000
 3739.00    1.22286   1.18254    0.000
 3740.00    1.21221   1.19861   15.280
 3741.00    1.19562   1.21050   15.335
 3742.00    1.15728   1.21636   15.659
 3743.00    1.13870   1.21603   15.797
 3744.00    1.17722   1.21052   15.559
 3745.00    1.14464   1.20133    0.000
 3746.00    1.13631   1.18908    0.000
 3747.00    1.15549   1.17384    0.000
 3748.00    1.15397   1.15645    0.000
 3749.00    1.33190   1.13945    0.000
 3750.00    1.68863   1.12668    0.000
 3751.00    1.85982   1.12153    0.000
 3752.00    1.80303   1.12510    0.000
 3753.00    1.52189   1.13527    0.000
 3754.00    1.16307   1.14821    0.000
 3755.00    1.08996   1.16024   16.463
 3756.00    1.12090   1.16884   16.224
 3757.00    1.11359   1.17286   16.249
 3758.00    1.10264   1.17271   16.327
 3759.00    1.08946   1.17034   16.472
 3760.00    1.09367   1.16830   16.493
 3761.00    1.10323   1.16837   16.429
 3762.00    1.12992   1.17065   16.270
 3763.00    1.12946   1.17405   16.212
 3764.00    1.14076   1.17562   16.143
 3765.00    1.13023   1.17245    0.000
 3766.00    1.11171   1.16380    0.000
 3767.00    1.14040   1.15029    0.000
 3768.00    1.10375   1.13349    0.000
 3769.00    1.21654   1.11589    0.000
 3770.00    1.58597   1.10064    0.000
 3771.00    1.91126   1.09106    0.000
 3772.00    2.02474   1.09008    0.000
 3773.00    1.84331   1.09825    0.000
 3774.00    1.39554   1.11288    0.000
 3775.00    1.12458   1.12997    0.000
 3776.00    1.10405   1.14600   16.682
 3777.00    1.06341   1.15892   17.009
 3778.00    1.11514   1.16845   16.598
 3779.00    1.14899   1.17512   16.383
 3780.00    1.15348   1.17984   16.336
 3781.00    1.17161   1.18346   16.224
 3782.00    1.12937   1.18616   16.549
 3783.00    1.10717   1.18797   16.709
 3784.00    1.13253   1.18857   16.554
 3785.00    1.13606   1.18758   16.573
 3786.00    1.16191   1.18521   16.454
 3787.00    1.16016   1.18134   16.485
 3788.00    1.12248   1.17568   16.739
 3789.00    1.12398   1.16859   16.622
 3790.00    1.11422   1.16059   16.605
 3791.00    1.10266   1.15207   16.808
 3792.00    1.08197   1.14292   16.997
 3793.00    1.04663   1.13241    0.000
 3794.00    1.05830   1.11925    0.000
 3795.00    1.03970   1.10223    0.000
 3796.00    1.08962   1.08212    0.000
 3797.00    1.53094   1.06201    0.000
 3798.00    2.06443   1.04671    0.000
 3799.00    2.29432   1.04126    0.000
 3800.00    2.21364   1.04779    0.000
 3801.00    1.63953   1.06428    0.000
 3802.00    1.18324   1.08582    0.000
 3803.00    1.04638   1.10697   17.711
 3804.00    1.06688   1.12429   17.520
 3805.00    1.11306   1.13685   17.101
 3806.00    1.09482   1.14509   17.260
 3807.00    1.07397   1.15008   17.429
 3808.00    1.14113   1.15326   16.959
 3809.00    1.11078   1.15594   17.242
 3810.00    1.17194   1.15818   16.803
 3811.00    1.15515   1.15945   16.952
 3812.00    1.09733   1.15935   17.360
 3813.00    1.10581   1.15750   17.302
 3814.00    1.12262   1.15422   17.160
 3815.00    1.12480   1.15034    0.000
 3816.00    1.12494   1.14613    0.000
 3817.00    1.11315   1.14155    0.000
 3818.00    1.13549   1.13670    0.000
 3819.00    1.23644   1.13167    0.000
 3820.00    1.35129   1.12699    0.000
 3821.00    1.41092   1.12367    0.000
 3822.00    1.31021   1.12231    0.000
 3823.00    1.19461   1.12257    0.000
 3824.00    1.18253   1.12320   16.792
 3825.00    1.15885   1.12287   16.976
 3826.00    1.11269   1.12110   17.326
 3827.00    1.09157   1.11776   17.480
 3828.00    1.08310   1.11272   17.549
 3829.00    1.08288   1.10551   17.533
 3830.00    1.07788   1.09490    0.000
 3831.00    1.06869   1.08016    0.000
 3832.00    1.04984   1.06130    0.000
 3833.00    1.02377   1.03920    0.000
 3834.00    1.34855   1.01639    0.000
 3835.00    2.17799   0.99707    0.000
 3836.00    2.73384   0.98578    0.000
 3837.00    2.79718   0.98571    0.000
 3838.00    2.23871   0.99685    0.000
 3839.00    1.44130   1.01541    0.000
 3840.00    1.08414   1.03681    0.000
 3841.00    1.06690   1.05784   17.680
 3842.00    1.11117   1.07671   17.381
 3843.00    1.09657   1.09290   17.520
 3844.00    1.10704   1.10635   17.471
 3845.00    1.10057   1.11665   17.494
 3846.00    1.11399   1.12346   17.414
 3847.00    1.12746   1.12699   17.322
 3848.00    1.13053   1.12817   17.312
 3849.00    1.13281   1.12853   17.312
 3850.00    1.10923   1.12902   17.517
 3851.00    1.11493   1.12983   17.516
 3852.00    1.09118   1.13046   17.719
 3853.00    1.08060   1.13036   17.816
 3854.00    1.09954   1.12880   17.695
 3855.00    1.09046   1.12549   17.791
 3856.00    1.09413   1.12119   17.792
 3857.00    1.11268   1.11693   17.651
 3858.00    1.11364   1.11369   17.670
 3859.00    1.10666   1.11223    0.000
 3860.00    1.05914   1.11274    0.000
 3861.00    1.06735   1.11420    0.000
 3862.00    1.11890   1.11490    0.000
 3863.00    1.16989   1.11389    0.000
 3864.00    1.16181   1.11099    0.000
 3865.00    1.12254   1.10731    0.000
 3866.00    1.20055   1.10424    0.000
 3867.00    1.69909   1.10241    0.000
 3868.00    3.78037   1.10164    0.000
 3869.00    5.76952   1.10109    0.000
 3870.00    6.41180   1.10005    0.000
 3871.00    5.51866   1.09852    0.000
 3872.00    3.24049   1.09719    0.000
 3873.00    1.64441   1.09670    0.000
 3874.00    1.22683   1.09698    0.000
 3875.00    1.12660   1.09742    0.000
 3876.00    1.09871   1.09714    0.000
 3877.00    1.12597   1.09555   17.900
 3878.00    1.09322   1.09283   18.148
 3879.00    1.05088   1.08967   18.508
 3880.00    1.06817   1.08629   18.387
 3881.00    1.07739   1.08212   18.329
 3882.00    1.09365   1.07638    0.000
 3883.00    1.07463   1.06799    0.000
 3884.00    1.08651   1.05603    0.000
 3885.00    1.05085   1.03952    0.000
 3886.00    1.06767   1.01793    0.000
 3887.00    1.40874   0.99269    0.000
 3888.00    3.16710   0.96830    0.000
 3889.00    5.28810   0.95116    0.000
 3890.00    6.09577   0.94658    0.000
 3891.00    5.26277   0.95676    0.000
 3892.00    3.22358   0.97862    0.000
 3893.00    1.55137   1.00558    0.000
 3894.00    1.04854   1.03124    0.000
 3895.00    0.99790   1.05219    0.000
 3896.00    1.01081   1.06747   18.786
 3897.00    1.05704   1.07830   18.370
 3898.00    1.04075   1.08583   18.483
 3899.00    1.02580   1.09107   18.628
 3900.00    1.01670   1.09496   18.672
 3901.00    1.04111   1.09796   18.440
 3902.00    1.04258   1.10039   18.402
 3903.00    1.04342   1.10227   18.366
 3904.00    1.04291   1.10350   18.310
 3905.00    1.04574   1.10430   18.260
 3906.00    1.04848   1.10507   18.222
 3907.00    1.06236   1.10625   18.071
 3908.00    1.05018   1.10799   18.140
 3909.00    1.02094   1.11043   18.356
 3910.00    1.07903   1.11285   17.820
 3911.00    1.08133   1.11442   17.762
 3912.00    1.10067   1.11530   17.562
 3913.00    1.08671   1.11595   17.663
 3914.00    1.05608   1.11599   17.884
 3915.00    1.04147   1.11518   17.971
 3916.00    1.05917   1.11358   17.814
 3917.00    1.09349   1.11090   17.532
 3918.00    1.06721   1.10685   17.728
 3919.00    1.05790   1.10155   17.773
 3920.00    1.05003   1.09524   17.765
 3921.00    1.07088   1.08847   17.508
 3922.00    1.04647   1.08210   17.700
 3923.00    1.04059   1.07674   17.763
 3924.00    1.00765   1.07280   18.033
 3925.00    1.01355   1.07064   18.005
 3926.00    1.02627   1.07031   17.863
 3927.00    1.07224   1.07072   17.468
 3928.00    1.09180   1.07026   17.316
 3929.00    1.05022   1.06747   17.657
 3930.00    1.01271   1.06025   17.979
 3931.00    0.96294   1.04679   18.458
 3932.00    0.99694   1.02825   18.145
 3933.00    0.99422   1.00863   18.189
 3934.00    0.96478   0.99389   18.496
 3935.00    0.93516   0.99101   18.797
 3936.00    0.95891   1.00331   18.523
 3937.00    1.01395   1.02430   18.018
 3938.00    1.03330   1.04453   17.857
 3939.00    1.09764   1.06007   17.349
 3940.00    1.08735   1.06981   17.479
 3941.00    1.06659   1.07459   17.691
 3942.00    1.06038   1.07604   17.756
 3943.00    1.02215   1.07504   18.107
 3944.00    1.03884   1.07222   17.971
 3945.00    1.00942   1.06858   18.233
 3946.00    1.03441   1.06527   18.049
 3947.00    1.09105   1.06315   17.602
 3948.00    1.10109   1.06271   17.557
 3949.00    1.11205   1.06339   17.500
 3950.00    1.07466   1.06430   17.846
 3951.00    1.05134   1.06473   18.064
 3952.00    1.06777   1.06416   17.937
 3953.00    1.05414   1.06255   18.107
 3954.00    1.03847   1.06017   18.296
 3955.00    1.03400   1.05728   18.378
 3956.00    1.02826   1.05386   18.480
 3957.00    1.05898   1.04990    0.000
 3958.00    1.04773   1.04551    0.000
 3959.00    1.02768   1.04077    0.000
 3960.00    0.98329   1.03531    0.000
 3961.00    1.02483   1.02859    0.000
 3962.00    1.02516   1.01993    0.000
 3963.00    1.02686   1.00896    0.000
 3964.00    1.07802   0.99465    0.000
 3965.00    1.23787   0.97492    0.000
 3966.00    1.52244   0.94824    0.000
 3967.00    2.09336   0.91540    0.000
 3968.00    2.65465   0.87986    0.000
 3969.00    3.69817   0.84837    0.000
 3970.00    4.96212   0.82990    0.000
 3971.00    5.19491   0.83054    0.000
 3972.00    4.61254   0.84834    0.000
 3973.00    3.13402   0.87710    0.000
 3974.00    1.56966   0.90979    0.000
 3975.00    1.04752   0.94058    0.000
 3976.00    1.00838   0.96586    0.000
 3977.00    0.98408   0.98539   19.888
 3978.00    0.95866   0.99993   20.182
 3979.00    0.97620   1.01072   20.044
 3980.00    0.98512   1.01894   20.008
 3981.00    0.99751   1.02526   19.920
 3982.00    1.04152   1.02956   19.537
 3983.00    1.03419   1.03207   19.648
 3984.00    1.00793   1.03265   19.920
 3985.00    1.03527   1.03164   19.694
 3986.00    1.03008   1.03056   19.783
 3987.00    1.02385   1.03006   19.880
 3988.00    1.03106   1.03073   19.830
 3989.00    1.06342   1.03332   19.543
 3990.00    1.04062   1.03820   19.772
 3991.00    1.03615   1.04222   19.853
 3992.00    1.04563   1.04509   19.782
 3993.00    1.02695   1.04672   19.973
 3994.00    1.01452   1.04714   20.063
 3995.00    1.03679   1.04660   19.845
 3996.00    1.02985   1.04557   19.922
 3997.00    1.00032   1.04446   20.211
 3998.00    1.00920   1.04334   20.120
 3999.00    1.04471   1.04261   19.790
 4000.00    1.01359   1.04211   20.078
 4001.00    1.00268   1.04156   20.186
 4002.00    0.98693   1.04055   20.340
 4003.00    1.01294   1.03939    0.000
 4004.00    1.04245   1.03786    0.000
 4005.00    1.02305   1.03616    0.000
 4006.00    1.02178   1.03469    0.000
 4007.00    1.03015   1.03403    0.000
 4008.00    0.99506   1.03430    0.000
 4009.00    1.00785   1.03549    0.000
 4010.00    1.02265   1.03718    0.000
 4011.00    1.04843   1.03894    0.000
 4012.00    1.06021   1.04072    0.000
 4013.00    1.04255   1.04251    0.000
 4014.00    0.99828   1.04392    0.000
 4015.00    1.00855   1.04476   19.960
 4016.00    0.99569   1.04528   20.065
 4017.00    1.00577   1.04557   19.961
 4018.00    1.02658   1.04582   19.741
 4019.00    1.02876   1.04589   19.706
 4020.00    0.99522   1.04528    0.000
 4021.00    0.97836   1.04330    0.000
 4022.00    0.98740   1.03924    0.000
 4023.00    0.96400   1.03301    0.000
 4024.00    0.94758   1.02523    0.000
 4025.00    1.06338   1.01713    0.000
 4026.00    1.28395   1.01082    0.000
 4027.00    1.40074   1.00839    0.000
 4028.00    1.38212   1.01039    0.000
 4029.00    1.28121   1.01534    0.000
 4030.00    1.07113   1.02038    0.000
 4031.00    1.00000   1.02333    0.000
 4032.00    1.01697   1.02397   19.688
 4033.00    0.95142   1.02356   20.346
 4034.00    0.99207   1.02370   19.916
 4035.00    1.02967   1.02535   19.540
 4036.00    1.01833   1.02858   19.635
 4037.00    1.01731   1.03266   19.652
 4038.00    1.01342   1.03633   19.698
 4039.00    0.99080   1.03876   19.914
 4040.00    0.97449   1.03959   20.085
 4041.00    1.00084   1.03878   19.803
 4042.00    1.01384   1.03656   19.678
 4043.00    1.00099   1.03296   19.802
 4044.00    0.97644   1.02809   20.054
 4045.00    0.99194   1.02299   19.921
 4046.00    0.96819   1.01914   20.169
 4047.00    0.95347   1.01786   20.340
 4048.00    0.94988   1.01966   20.396
 4049.00    0.97870   1.02376   20.126
 4050.00    0.97338   1.02866   20.212
 4051.00    0.96662   1.03278   20.292
 4052.00    0.97825   1.03532   20.139
 4053.00    0.99528   1.03626   19.955
 4054.00    1.04199   1.03575   19.552
 4055.00    1.02865   1.03403   19.704
 4056.00    0.99580   1.03187   20.054
 4057.00    0.98246   1.02967   20.221
 4058.00    0.96483   1.02768   20.420
 4059.00    1.00309   1.02591   20.070
 4060.00    0.97783   1.02402   20.365
 4061.00    0.96309   1.02110    0.000
 4062.00    0.96109   1.01622    0.000
 4063.00    0.98038   1.00875    0.000
 4064.00    1.00054   0.99985    0.000
 4065.00    0.98536   0.99119    0.000
 4066.00    0.95874   0.98428    0.000
 4067.00    0.98790   0.98039    0.000
 4068.00    1.06604   0.98084    0.000
 4069.00    1.12227   0.98280    0.000
 4070.00    1.14990   0.98388    0.000
 4071.00    1.14803   0.98377    0.000
 4072.00    1.07898   0.98298    0.000
 4073.00    0.98622   0.98214    0.000
 4074.00    0.94751   0.98149    0.000
 4075.00    0.96750   0.98081    0.000
 4076.00    1.02775   0.98007    0.000
 4077.00    1.02434   0.97952    0.000
 4078.00    1.01163   0.97979    0.000
 4079.00    0.98472   0.98159    0.000
 4080.00    0.97810   0.98476    0.000
 4081.00    0.98826   0.98834    0.000
 4082.00    0.97187   0.99100    0.000
 4083.00    0.96054   0.99202   21.242
 4084.00    0.92304   0.99145   21.685
 4085.00    0.92878   0.99019   21.652
 4086.00    0.97634   0.98909   21.153
 4087.00    0.97083   0.98878   21.227
 4088.00    0.97383   0.98888   21.242
 4089.00    0.97068   0.98876   21.294
 4090.00    0.98115   0.98765   21.194
 4091.00    0.96977   0.98507   21.343
 4092.00    0.97821   0.98083   21.262
 4093.00    0.95211   0.97477   21.580
 4094.00    0.91656   0.96631   22.003
 4095.00    0.90997   0.95463   22.103
 4096.00    0.89725   0.93944   22.274
 4097.00    0.92458   0.92079   21.967
 4098.00    0.93560   0.89919   21.860
 4099.00    0.98966   0.87561    0.000
 4100.00    1.64960   0.85179    0.000
 4101.00    4.13171   0.83103    0.000
 4102.00    6.90374   0.81783    0.000
 4103.00    7.90629   0.81592    0.000
 4104.00    6.89598   0.82660    0.000
 4105.00    3.93036   0.84755    0.000
 4106.00    1.58602   0.87334    0.000
 4107.00    1.00959   0.89789   -1.000
 4108.00    0.97076   0.91772   21.618
 4109.00    0.94840   0.93201   21.858
 4110.00    0.89735   0.94172   22.498
 4111.00    0.90721   0.94831   22.382
 4112.00    0.93178   0.95324   22.104
 4113.00    0.91649   0.95753   22.291
 4114.00    0.90519   0.96139   22.464
 4115.00    0.92318   0.96459   22.245
 4116.00    0.93948   0.96676    0.000
 4117.00    0.95230   0.96745    0.000
 4118.00    0.97169   0.96660    0.000
 4119.00    0.94958   0.96477    0.000
 4120.00    0.93647   0.96296    0.000
 4121.00    0.94318   0.96215    0.000
 4122.00    0.95460   0.96257    0.000
 4123.00    0.97254   0.96394    0.000
 4124.00    0.96434   0.96573    0.000
 4125.00    0.91255   0.96736    0.000
 4126.00    0.89742   0.96821   22.648
 4127.00    0.93417   0.96801   22.203
 4128.00    0.93456   0.96668   22.208
 4129.00    0.93287   0.96449   22.236
 4130.00    0.94447   0.96188   22.119
 4131.00    0.94187   0.95933   22.157
 4132.00    0.95347   0.95705   22.021
 4133.00    0.94840   0.95536   22.089
 4134.00    0.94494   0.95469   22.137
 4135.00    0.96197   0.95550   21.932
 4136.00    0.92465   0.95776   22.398
 4137.00    0.89121   0.96073   22.837
 4138.00    0.91781   0.96326   22.510
 4139.00    0.93779   0.96445    0.000
 4140.00    0.93964   0.96377    0.000
 4141.00    0.93790   0.96109    0.000
 4142.00    0.92607   0.95687    0.000
 4143.00    0.94626   0.95210    0.000
 4144.00    0.97857   0.94796    0.000
 4145.00    1.01089   0.94556    0.000
 4146.00    0.98891   0.94540    0.000
 4147.00    0.96586   0.94707    0.000
 4148.00    0.96251   0.94942   22.090
 4149.00    0.95652   0.95132   22.175
 4150.00    0.93152   0.95241   22.478
 4151.00    0.93435   0.95286   22.449
 4152.00    0.92640   0.95283   22.554
 4153.00    0.93338   0.95249   22.482
 4154.00    0.92506   0.95191   22.608
 4155.00    0.92006   0.95131   22.673
 4156.00    0.91462   0.95102   22.743
 4157.00    0.94323   0.95126   22.408
 4158.00    0.93554   0.95206   22.505
 4159.00    0.92542   0.95338   22.639
 4160.00    0.94035   0.95493   22.463
 4161.00    0.90168   0.95632   22.955
 4162.00    0.91862   0.95712   22.749
 4163.00    0.93903   0.95716   22.509
 4164.00    0.90597   0.95631   22.918
 4165.00    0.91722   0.95435   22.776
 4166.00    0.93238   0.95140   22.584
 4167.00    0.96128   0.94790   22.242
 4168.00    0.93690   0.94437   22.538
 4169.00    0.91753   0.94116   22.775
 4170.00    0.91983   0.93849   22.751
 4171.00    0.93630   0.93618   22.538
 4172.00    0.90626   0.93384   22.920
 4173.00    0.89099   0.93128   23.090
 4174.00    0.88563   0.92888   23.165
 4175.00    0.88023   0.92710   23.239
 4176.00    0.90326   0.92606   22.923
 4177.00    0.90982   0.92563   22.831
 4178.00    0.90047   0.92564   22.956
 4179.00    0.87633   0.92589   23.273
 4180.00    0.91084   0.92610   22.829
 4181.00    0.94003   0.92605   22.474
 4182.00    0.92569   0.92581   22.633
 4183.00    0.91649   0.92562   22.728
 4184.00    0.89178   0.92563   23.016
 4185.00    0.91071   0.92564   22.753
 4186.00    0.91457   0.92531   22.711
 4187.00    0.91457   0.92432   22.696
 4188.00    0.91845   0.92260   22.661
 4189.00    0.93958   0.92042   22.393
 4190.00    0.91023   0.91808   22.732
 4191.00    0.90971   0.91564   22.733
 4192.00    0.89473   0.91302   22.922
 4193.00    0.85300   0.91000   23.464
 4194.00    0.85877   0.90625   23.382
 4195.00    0.88468   0.90132   23.031
 4196.00    0.89533   0.89462   22.889
 4197.00    0.88699   0.88604   22.997
 4198.00    0.89450   0.87641   22.902
 4199.00    0.84790   0.86732   23.499
 4200.00    0.82727   0.86057   23.772
 4201.00    0.79659   0.85776   24.214
 4202.00    0.82842   0.85970   23.745
 4203.00    0.87367   0.86594   23.108
 4204.00    0.87772   0.87475   23.049
 4205.00    0.84189   0.88399   23.515
 4206.00    0.85477   0.89189   23.327
 4207.00    0.89977   0.89753   22.733
 4208.00    0.87884   0.90081   22.991
 4209.00    0.89044   0.90204   22.832
 4210.00    0.91897   0.90168   22.451
 4211.00    0.88393   0.90012   22.895
 4212.00    0.83313   0.89777   23.568
 4213.00    0.83761   0.89502   23.502
 4214.00    0.88745   0.89235   22.821
 4215.00    0.89191   0.89022   22.757
 4216.00    0.89797   0.88913   22.661
 4217.00    0.87375   0.88942   22.963
 4218.00    0.87487   0.89100   22.939
 4219.00    0.87552   0.89322   22.919
 4220.00    0.88984   0.89495   22.725
 4221.00    0.90704   0.89486   22.507
 4222.00    0.89848   0.89220   22.609
 4223.00    0.87475   0.88689   22.911
 4224.00    0.87158   0.87957   22.949
 4225.00    0.86613   0.87150   23.018
 4226.00    0.86282   0.86430   23.064
 4227.00    0.84845   0.85961   23.247
 4228.00    0.84803   0.85842   23.258
 4229.00    0.87033   0.86064   22.958
 4230.00    0.88424   0.86527   22.764
 4231.00    0.87357   0.87052   22.919
 4232.00    0.87268   0.87473   22.925
 4233.00    0.86702   0.87700   23.005
 4234.00    0.87613   0.87756   22.894
 4235.00    0.87648   0.87723   22.891
 4236.00    0.87422   0.87693   22.921
 4237.00    0.89109   0.87726   22.707
 4238.00    0.87853   0.87837   22.883
 4239.00    0.86842   0.88013   23.010
 4240.00    0.87414   0.88232   22.934
 4241.00    0.88374   0.88482   22.830
 4242.00    0.87841   0.88764   22.899
 4243.00    0.87907   0.89069   22.883
 4244.00    0.88155   0.89350   22.870
 4245.00    0.88018   0.89534   22.893
 4246.00    0.86408   0.89552   23.128
 4247.00    0.87491   0.89372   22.997
 4248.00    0.87125   0.89023   23.054
 4249.00    0.87402   0.88582   23.022
 4250.00    0.86238   0.88148   23.208
 4251.00    0.86669   0.87799   23.154
 4252.00    0.84919   0.87569   23.398
 4253.00    0.85129   0.87441   23.389
 4254.00    0.84451   0.87370   23.505
 4255.00    0.84170   0.87318   23.579
 4256.00    0.84805   0.87263   23.506
 4257.00    0.85411   0.87198   23.440
 4258.00    0.85519   0.87128   23.437
 4259.00    0.86228   0.87044   23.360
 4260.00    0.86542   0.86970   23.345
 4261.00    0.88717   0.86961   23.077
 4262.00    0.87522   0.87083   23.252
 4263.00    0.86147   0.87339   23.472
 4264.00    0.87087   0.87662   23.351
 4265.00    0.89411   0.87938   23.052
 4266.00    0.86763   0.88061   23.423
 4267.00    0.86026   0.87977   23.543
 4268.00    0.88749   0.87682   23.179
 4269.00    0.88973   0.87221   23.176
 4270.00    0.86123   0.86662   23.580
 4271.00    0.85836   0.86089   23.636
 4272.00    0.87194   0.85592   23.458
 4273.00    0.85926   0.85257   23.641
 4274.00    0.85358   0.85138   23.728
 4275.00    0.84056   0.85246   23.937
 4276.00    0.84877   0.85541   23.831
 4277.00    0.84151   0.85948   23.950
 4278.00    0.83835   0.86368   24.006
 4279.00    0.83502   0.86706   24.059
 4280.00    0.83249   0.86908   24.100
 4281.00    0.83823   0.86971   24.044
 4282.00    0.83314   0.86946   24.120
 4283.00    0.86727   0.86883   23.638
 4284.00    0.85958   0.86801   23.760
 4285.00    0.87522   0.86682   23.567
 4286.00    0.86414   0.86504   23.727
 4287.00    0.87223   0.86256   23.609
 4288.00    0.87005   0.85942   23.658
 4289.00    0.85163   0.85581   23.907
 4290.00    0.87274   0.85217   23.615
 4291.00    0.86915   0.84897   23.678
 4292.00    0.84773   0.84672   23.988
 4293.00    0.84965   0.84546   23.974
 4294.00    0.85708   0.84495   23.876
 4295.00    0.85112   0.84429   23.966
 4296.00    0.86934   0.84271   23.731
 4297.00    0.86365   0.83993   23.820
 4298.00    0.82157   0.83618   24.422
 4299.00    0.84106   0.83196   24.138
 4300.00    0.85518   0.82789   23.919
 4301.00    0.85143   0.82464   23.982
 4302.00    0.84575   0.82256   24.084
 4303.00    0.84277   0.82153   24.124
 4304.00    0.85182   0.82114   23.999
 4305.00    0.87025   0.82073   23.751
 4306.00    0.85295   0.81986   23.989
 4307.00    0.85528   0.81849   23.947
 4308.00    0.85356   0.81695   23.970
 4309.00    0.86005   0.81589   23.876
 4310.00    0.84575   0.81604   24.063
 4311.00    0.83638   0.81795   24.199
 4312.00    0.84579   0.82174   24.070
 4313.00    0.85765   0.82708   23.903
 4314.00    0.85148   0.83356   23.978
 4315.00    0.82852   0.84069   24.280
 4316.00    0.83127   0.84772   24.241
 4317.00    0.85427   0.85381   23.894
 4318.00    0.85854   0.85805   23.822
 4319.00    0.84143   0.85973   24.046
 4320.00    0.80186   0.85866   24.654
 4321.00    0.80380   0.85499   24.611
 4322.00    0.80628   0.84930   24.560
 4323.00    0.82390   0.84241   24.278
 4324.00    0.83608   0.83537   24.103
 4325.00    0.83804   0.82952   24.061
 4326.00    0.81527   0.82615   24.396
 4327.00    0.84598   0.82587   23.937
 4328.00    0.85259   0.82840   23.840
 4329.00    0.84399   0.83247   23.963
 4330.00    0.83427   0.83632   24.093
 4331.00    0.81858   0.83841   24.310
 4332.00    0.80606   0.83796   24.487
 4333.00    0.79450   0.83455   24.657
 4334.00    0.78724   0.82772   24.747
 4335.00    0.77584   0.81671   24.920
 4336.00    0.80881   0.80062   24.413
 4337.00    0.84849   0.77950   23.816
 4338.00    1.02330   0.75501   -1.000
 4339.00    2.80658   0.73069   -1.000
 4340.00    8.06595   0.71130    0.000
 4341.00   12.79500   0.70126    0.000
 4342.00   14.05344   0.70282    0.000
 4343.00   11.30664   0.71523    0.000
 4344.00    5.47551   0.73493    0.000
 4345.00    1.73161   0.75710    0.000
 4346.00    0.95845   0.77743    0.000
 4347.00    0.88024   0.79354    0.000
 4348.00    0.84778   0.80470    0.000
 4349.00    0.83054   0.81138    0.000
 4350.00    0.81813   0.81454    0.000
 4351.00    0.82318   0.81550    0.000
 4352.00    0.80380   0.81559    0.000
 4353.00    0.81126   0.81601    0.000
 4354.00    0.81395   0.81756    0.000
 4355.00    0.80549   0.82007    0.000
 4356.00    0.76715   0.82301    0.000
 4357.00    0.77669   0.82578    0.000
 4358.00    0.80477   0.82800    0.000
 4359.00    0.78077   0.82955    0.000
 4360.00    0.77286   0.83060    0.000
 4361.00    0.79402   0.83144    0.000
 4362.00    0.90649   0.83231    0.000
 4363.00    1.04935   0.83328    0.000
 4364.00    1.19734   0.83417    0.000
 4365.00    1.26645   0.83461    0.000
 4366.00    1.13185   0.83419    0.000
 4367.00    0.93911   0.83257   22.421
 4368.00    0.85433   0.82968   23.483
 4369.00    0.84233   0.82581   23.675
 4370.00    0.79718   0.82142   24.332
 4371.00    0.80429   0.81686   24.235
 4372.00    0.78257   0.81235   24.569
 4373.00    0.80211   0.80797   24.267
 4374.00    0.82441   0.80397   23.935
 4375.00    0.81847   0.80076   24.031
 4376.00    0.81094   0.79860   24.154
 4377.00    0.83257   0.79742   23.833
 4378.00    0.82747   0.79668   23.912
 4379.00    0.78268   0.79551   24.594
 4380.00    0.80652   0.79300   24.239
 4381.00    0.80614   0.78865   24.247
 4382.00    0.80612   0.78272    0.000
 4383.00    0.78284   0.77626    0.000
 4384.00    0.77219   0.77071    0.000
 4385.00    0.78869   0.76723    0.000
 4386.00    0.80340   0.76630    0.000
 4387.00    0.82835   0.76752    0.000
 4388.00    0.87183   0.76998    0.000
 4389.00    0.90983   0.77270    0.000
 4390.00    0.93187   0.77514    0.000
 4391.00    0.86177   0.77731    0.000
 4392.00    0.82073   0.77947    0.000
 4393.00    0.77423   0.78181   24.812
 4394.00    0.76915   0.78433   24.901
 4395.00    0.80757   0.78697   24.325
 4396.00    0.79627   0.78954   24.498
 4397.00    0.76437   0.79164   25.017
 4398.00    0.76140   0.79286   25.070
 4399.00    0.77279   0.79279   24.893
 4400.00    0.79153   0.79121   24.619
 4401.00    0.80194   0.78811   24.468
 4402.00    0.78408   0.78385   24.753
 4403.00    0.78200   0.77900   24.794
 4404.00    0.79041   0.77429   24.677
 4405.00    0.76536   0.77049   25.084
 4406.00    0.81053   0.76833   24.375
 4407.00    0.80378   0.76827   24.487
 4408.00    0.80212   0.77030   24.515
 4409.00    0.80380   0.77393   24.484
 4410.00    0.78318   0.77820   24.812
 4411.00    0.78212   0.78202   24.823
 4412.00    0.77042   0.78444   25.000
 4413.00    0.78749   0.78487   24.711
 4414.00    0.82900   0.78337   24.100
 4415.00    0.79369   0.78072   24.623
 4416.00    0.76485   0.77818   25.067
 4417.00    0.77778   0.77685   24.852
 4418.00    0.74535   0.77705   25.380
 4419.00    0.76410   0.77825   25.060
 4420.00    0.78580   0.77934   24.704
 4421.00    0.79514   0.77928   24.561
 4422.00    0.81163   0.77766   24.297
 4423.00    0.80622   0.77487   24.371
 4424.00    0.81160   0.77164   24.304
 4425.00    0.77017   0.76868   24.946
 4426.00    0.74476   0.76639   25.365
 4427.00    0.76717   0.76484   24.996
 4428.00    0.78151   0.76390   24.776
 4429.00    0.75161   0.76339   25.284
 4430.00    0.73060   0.76317   25.642
 4431.00    0.75429   0.76314   25.247
 4432.00    0.75488   0.76315   25.241
 4433.00    0.76360   0.76309   25.115
 4434.00    0.78266   0.76303   24.824
 4435.00    0.75703   0.76327   25.260
 4436.00    0.75673   0.76424   25.275
 4437.00    0.76945   0.76615   25.071
 4438.00    0.77278   0.76883   25.026
 4439.00    0.76539   0.77160   25.145
 4440.00    0.78501   0.77367   24.848
 4441.00    0.76949   0.77465   25.084
 4442.00    0.75866   0.77482   25.275
 4443.00    0.76634   0.77495   25.150
 4444.00    0.74478   0.77585   25.522
 4445.00    0.72274   0.77781   25.898
 4446.00    0.73767   0.78051   25.647
 4447.00    0.77725   0.78325   24.977
 4448.00    0.78314   0.78542   24.891
 4449.00    0.74905   0.78668   25.455
 4450.00    0.77167   0.78690   25.080
 4451.00    0.77710   0.78601   24.976
 4452.00    0.76035   0.78394   25.268
 4453.00    0.77669   0.78066   25.007
 4454.00    0.76683   0.77641   25.156
 4455.00    0.77899   0.77178   24.965
 4456.00    0.74256   0.76761   25.596
 4457.00    0.76232   0.76452   25.269
 4458.00    0.77120   0.76274   25.120
 4459.00    0.76145   0.76206   25.280
 4460.00    0.78156   0.76213   24.963
 4461.00    0.76718   0.76265   25.203
 4462.00    0.76019   0.76351   25.344
 4463.00    0.75389   0.76476   25.462
 4464.00    0.72749   0.76618   25.916
 4465.00    0.72357   0.76737    0.000
 4466.00    0.72127   0.76776    0.000
 4467.00    0.70756   0.76694    0.000
 4468.00    0.71507   0.76484    0.000
 4469.00    0.77643   0.76188    0.000
 4470.00    0.91191   0.75886    0.000
 4471.00    1.34717   0.75674    0.000
 4472.00    1.77881   0.75630    0.000
 4473.00    1.92983   0.75779    0.000
 4474.00    1.67082   0.76084    0.000
 4475.00    1.14114   0.76461    0.000
 4476.00    0.82953   0.76796    0.000
 4477.00    0.77626   0.76997    0.000
 4478.00    0.75697   0.77012   25.412
 4479.00    0.76230   0.76846   25.330
 4480.00    0.75471   0.76556   25.450
 4481.00    0.70507   0.76254   26.328
 4482.00    0.72972   0.76057   25.870
 4483.00    0.75759   0.76050   25.377
 4484.00    0.75404   0.76242   25.442
 4485.00    0.74766   0.76558   25.557
 4486.00    0.72993   0.76868   25.861
 4487.00    0.73712   0.77051   25.728
 4488.00    0.77116   0.77056   25.163
 4489.00    0.75505   0.76905   25.423
 4490.00    0.72936   0.76676   25.865
 4491.00    0.71977   0.76448   26.056
 4492.00    0.71499   0.76263   26.143
 4493.00    0.71830   0.76117   26.070
 4494.00    0.74773   0.75988   25.564
 4495.00    0.73725   0.75869   25.747
 4496.00    0.73769   0.75771   25.743
 4497.00    0.71961   0.75715   26.070
 4498.00    0.75521   0.75703   25.448
 4499.00    0.76784   0.75720   25.240
 4500.00    0.76939   0.75745   25.223
 4501.00    0.72371   0.75786   26.022
 4502.00    0.73255   0.75872   25.851
 4503.00    0.74235   0.76038   25.695
 4504.00    0.72631   0.76284   25.984
 4505.00    0.73951   0.76567   25.749
 4506.00    0.74601   0.76816   25.657
 4507.00    0.76936   0.76971   25.249
 4508.00    0.77908   0.77005   25.107
 4509.00    0.76753   0.76932   25.302
 4510.00    0.75058   0.76785   25.599
 4511.00    0.72050   0.76598   26.139
 4512.00    0.75770   0.76391   25.494
 4513.00    0.76709   0.76177   25.347
 4514.00    0.73087   0.75970   25.977
 4515.00    0.72557   0.75789   26.065
 4516.00    0.73594   0.75651   25.898
 4517.00    0.73958   0.75566   25.847
 4518.00    0.73683   0.75532   25.906
 4519.00    0.72700   0.75541   26.089
 4520.00    0.72511   0.75572   26.123
 4521.00    0.72242   0.75592   26.185
 4522.00    0.71986   0.75557   26.253
 4523.00    0.74798   0.75424   25.764
 4524.00    0.73855   0.75168   25.934
 4525.00    0.74217   0.74789   25.873
 4526.00    0.72006   0.74321   26.278
 4527.00    0.71962   0.73817   26.303
 4528.00    0.74335   0.73335   25.883
 4529.00    0.74189   0.72931   25.921
 4530.00    0.73321   0.72642   26.081
 4531.00    0.75573   0.72478   25.712
 4532.00    0.72157   0.72415   26.311
 4533.00    0.69516   0.72411   26.826
 4534.00    0.69260   0.72424   26.890
 4535.00    0.72868   0.72437   26.224
 4536.00    0.70984   0.72450   26.569
 4537.00    0.70618   0.72461   26.662
 4538.00    0.72702   0.72440   26.268
 4539.00    0.74256   0.72331   25.999
 4540.00    0.72812   0.72096   26.273
 4541.00    0.68649   0.71757   27.060
 4542.00    0.66741   0.71407   27.444
 4543.00    0.62703   0.71171   28.333
 4544.00    0.62239   0.71140   28.453
 4545.00    0.67256   0.71327   27.364
 4546.00    0.69859   0.71668   26.854
 4547.00    0.71376   0.72058   26.564
 4548.00    0.73087   0.72407   26.248
 4549.00    0.72512   0.72671   26.370
 4550.00    0.72195   0.72844   26.430
 4551.00    0.74534   0.72943   26.034
 4552.00    0.72799   0.72990   26.328
 4553.00    0.70769   0.72997   26.702
 4554.00    0.68709   0.72983   27.100
 4555.00    0.70746   0.72981   26.708
 4556.00    0.69890   0.73033   26.878
 4557.00    0.71510   0.73172   26.564
 4558.00    0.72344   0.73402   26.413
 4559.00    0.71546   0.73682   26.561
 4560.00    0.72220   0.73947   26.439
 4561.00    0.73966   0.74125   26.133
 4562.00    0.74555   0.74175   26.024
 4563.00    0.73600   0.74095   26.200
 4564.00    0.75245   0.73923   25.909
 4565.00    0.73424   0.73728   26.223
 4566.00    0.72022   0.73569   26.478
 4567.00    0.71592   0.73482   26.545
 4568.00    0.71530   0.73462   26.563
 4569.00    0.73495   0.73473   26.194
 4570.00    0.72942   0.73471   26.278
 4571.00    0.71553   0.73430   26.534
 4572.00    0.72077   0.73357   26.429
 4573.00    0.71400   0.73285   26.552
 4574.00    0.71798   0.73238   26.480
 4575.00    0.69381   0.73221   26.929
 4576.00    0.68430   0.73207   27.099
 4577.00    0.67595   0.73155   27.250
 4578.00    0.70853   0.73028   26.611
 4579.00    0.70193   0.72814   26.730
 4580.00    0.70250   0.72537   26.710
 4581.00    0.71014   0.72241   26.564
 4582.00    0.73552   0.71978   26.093
 4583.00    0.72765   0.71786   26.212
 4584.00    0.69237   0.71675   26.855
 4585.00    0.69533   0.71637   26.799
 4586.00    0.71656   0.71660   26.379
 4587.00    0.69087   0.71733   26.859
 4588.00    0.68256   0.71844   27.005
 4589.00    0.71879   0.71967   26.289
 4590.00    0.71668   0.72060   26.329
 4591.00    0.69142   0.72081   26.790
 4592.00    0.70753   0.72010   26.454
 4593.00    0.72446   0.71855   26.134
 4594.00    0.72576   0.71658   26.106
 4595.00    0.72987   0.71468   26.018
 4596.00    0.73274   0.71322   25.951
 4597.00    0.71854   0.71232   26.186
 4598.00    0.70693   0.71188   26.389
 4599.00    0.68348   0.71164   26.808
 4600.00    0.67028   0.71135    0.000
 4601.00    0.67833   0.71083    0.000
 4602.00    0.67840   0.71000    0.000
 4603.00    0.68413   0.70888    0.000
 4604.00    0.69384   0.70764    0.000
 4605.00    0.69027   0.70661    0.000
 4606.00    0.68635   0.70625    0.000
 4607.00    0.69017   0.70692    0.000
 4608.00    0.65834   0.70868    0.000
 4609.00    0.68825   0.71119    0.000
 4610.00    0.71317   0.71380    0.000
 4611.00    0.68564   0.71584    0.000
 4612.00    0.70552   0.71693    0.000
 4613.00    0.69947   0.71707    0.000
 4614.00    0.68785   0.71665    0.000
 4615.00    0.72811   0.71613    0.000
 4616.00    0.74083   0.71581    0.000
 4617.00    0.70765   0.71579    0.000
 4618.00    0.69887   0.71593    0.000
 4619.00    0.68078   0.71611    0.000
 4620.00    0.67029   0.71621    0.000
 4621.00    0.69454   0.71620    0.000
 4622.00    0.68055   0.71607    0.000
 4623.00    0.71115   0.71575    0.000
 4624.00    0.67256   0.71517    0.000
 4625.00    0.68239   0.71425    0.000
 4626.00    0.70338   0.71299    0.000
 4627.00    0.71891   0.71152    0.000
 4628.00    0.67249   0.71001    0.000
 4629.00    0.64538   0.70864    0.000
 4630.00    0.67744   0.70753    0.000
 4631.00    0.68367   0.70672    0.000
 4632.00    0.70462   0.70618    0.000
 4633.00    0.71013   0.70575    0.000
 4634.00    0.70709   0.70522    0.000
 4635.00    0.68718   0.70435    0.000
 4636.00    0.67984   0.70297    0.000
 4637.00    0.68602   0.70109    0.000
 4638.00    0.69971   0.69892    0.000
 4639.00    0.72087   0.69685    0.000
 4640.00    0.68953   0.69525    0.000
 4641.00    0.67201   0.69433    0.000
 4642.00    0.69946   0.69392    0.000
 4643.00    0.69755   0.69352    0.000
 4644.00    0.70441   0.69250    0.000
 4645.00    0.72274   0.69041    0.000
 4646.00    0.71530   0.68734    0.000
 4647.00    0.71900   0.68393    0.000
 4648.00    0.69164   0.68115    0.000
 4649.00    0.67640   0.67984    0.000
 4650.00    0.67524   0.68036    0.000
 4651.00    0.70659   0.68239    0.000
 4652.00    0.69848   0.68517    0.000
 4653.00    0.67049   0.68786    0.000
 4654.00    0.65025   0.68990    0.000
 4655.00    0.64994   0.69127    0.000
 4656.00    0.68475   0.69237    0.000
 4657.00    0.69890   0.69374    0.000
 4658.00    0.70468   0.69571    0.000
 4659.00    0.72832   0.69815    0.000
 4660.00    0.72537   0.70050    0.000
 4661.00    0.70445   0.70196    0.000
 4662.00    0.67249   0.70190    0.000
 4663.00    0.69443   0.70009    0.000
 4664.00    0.69402   0.69670    0.000
 4665.00    0.68473   0.69221    0.000
 4666.00    0.68263   0.68721    0.000
 4667.00    0.69172   0.68234    0.000
 4668.00    0.67815   0.67822    0.000
 4669.00    0.65214   0.67542    0.000
 4670.00    0.65522   0.67425    0.000
 4671.00    0.64207   0.67464    0.000
 4672.00    0.67838   0.67610    0.000
 4673.00    0.66053   0.67798    0.000
 4674.00    0.66584   0.67972    0.000
 4675.00    0.66436   0.68095    0.000
 4676.00    0.67236   0.68154    0.000
 4677.00    0.67963   0.68144    0.000
 4678.00    0.66180   0.68059    0.000
 4679.00    0.66323   0.67890    0.000
 4680.00    0.63703   0.67642    0.000
 4681.00    0.64753   0.67331    0.000
 4682.00    0.65734   0.66982    0.000
 4683.00    0.67195   0.66621    0.000
 4684.00    0.64243   0.66266    0.000
 4685.00    0.64205   0.65937    0.000
 4686.00    0.60879   0.65668    0.000
 4687.00    0.59884   0.65505    0.000
 4688.00    0.56249   0.65489    0.000
 4689.00    0.60867   0.65635    0.000
 4690.00    0.64919   0.65915    0.000
 4691.00    0.65588   0.66264    0.000
 4692.00    0.64826   0.66612    0.000
 4693.00    0.64026   0.66908    0.000
 4694.00    0.65855   0.67129    0.000
 4695.00    0.66118   0.67269    0.000
 4696.00    0.64363   0.67324    0.000
 4697.00    0.64882   0.67288    0.000
 4698.00    0.67485   0.67158    0.000
 4699.00    0.66544   0.66949    0.000
 4700.00    0.65554   0.66695    0.000
 4701.00    0.65443   0.66438    0.000
 4702.00    0.67167   0.66219    0.000
 4703.00    0.65976   0.66057    0.000
 4704.00    0.64556   0.65956    0.000
 4705.00    0.64300   0.65900    0.000
 4706.00    0.65971   0.65862    0.000
 4707.00    0.65378   0.65818    0.000
 4708.00    0.65249   0.65754    0.000
 4709.00    0.62725   0.65672    0.000
 4710.00    0.65122   0.65584    0.000
 4711.00    0.64170   0.65505    0.000
 4712.00    0.67625   0.65438    0.000
 4713.00    0.76884   0.65383    0.000
 4714.00    0.79646   0.65343    0.000
 4715.00    0.77891   0.65335    0.000
 4716.00    0.73797   0.65385    0.000
 4717.00    0.67134   0.65507    0.000
 4718.00    0.63957   0.65694    0.000
 4719.00    0.66327   0.65916    0.000
 4720.00    0.65978   0.66127    0.000
 4721.00    0.65165   0.66287    0.000
 4722.00    0.66982   0.66374    0.000
 4723.00    0.66217   0.66377    0.000
 4724.00    0.66102   0.66299    0.000
 4725.00    0.66597   0.66137    0.000
 4726.00    0.64821   0.65886    0.000
 4727.00    0.63623   0.65546    0.000
 4728.00    0.63958   0.65141    0.000
 4729.00    0.65280   0.64722    0.000
 4730.00    0.65658   0.64362    0.000
 4731.00    0.63704   0.64124    0.000
 4732.00    0.64040   0.64034    0.000
 4733.00    0.63739   0.64068    0.000
 4734.00    0.65225   0.64175    0.000
 4735.00    0.65368   0.64293    0.000
 4736.00    0.63977   0.64386    0.000
 4737.00    0.64235   0.64442    0.000
 4738.00    0.64246   0.64469    0.000
 4739.00    0.64964   0.64480    0.000
 4740.00    0.65955   0.64477    0.000
 4741.00    0.66293   0.64457    0.000
 4742.00    0.63925   0.64419    0.000
 4743.00    0.67044   0.64374    0.000
 4744.00    0.64955   0.64337    0.000
 4745.00    0.62292   0.64327    0.000
 4746.00    0.65780   0.64350    0.000
 4747.00    0.66028   0.64400    0.000
 4748.00    0.63477   0.64461    0.000
 4749.00    0.61944   0.64514    0.000
 4750.00    0.65125   0.64535    0.000
 4751.00    0.67913   0.64504   27.145
 4752.00    0.66631   0.64410   27.408
 4753.00    0.63399   0.64254   28.090
 4754.00    0.63322   0.64053   28.093
 4755.00    0.63682   0.63839   28.011
 4756.00    0.65143   0.63643   27.688
 4757.00    0.63490   0.63482   28.048
 4758.00    0.64015   0.63359   27.920
 4759.00    0.62942   0.63254   28.157
 4760.00    0.60606   0.63141   28.691
 4761.00    0.63305   0.62993   28.055
 4762.00    0.63535   0.62791   27.996
 4763.00    0.62186   0.62538   28.304
 4764.00    0.61792   0.62258   28.390
 4765.00    0.62153   0.61991   28.301
 4766.00    0.62384   0.61784   28.260
 4767.00    0.62673   0.61671   28.194
 4768.00    0.64812   0.61667   27.722
 4769.00    0.62954   0.61757   28.133
 4770.00    0.62643   0.61901   28.194
 4771.00    0.61955   0.62055   28.352
 4772.00    0.60621   0.62188   28.672
 4773.00    0.62995   0.62293   28.124
 4774.00    0.63416   0.62385   28.015
 4775.00    0.61957   0.62477   28.338
 4776.00    0.62725   0.62567   28.184
 4777.00    0.62181   0.62633   28.302
 4778.00    0.60094   0.62650   28.780
 4779.00    0.62652   0.62600   28.188
 4780.00    0.64781   0.62481   27.715
 4781.00    0.62901   0.62307   28.128
 4782.00    0.61027   0.62094   28.574
 4783.00    0.60450   0.61866   28.701
 4784.00    0.62825   0.61647   28.144
 4785.00    0.63264   0.61463   28.055
 4786.00    0.64186   0.61332   27.848
 4787.00    0.67384   0.61262   27.175
 4788.00    0.63714   0.61253   27.953
 4789.00    0.59153   0.61298   29.004
 4790.00    0.58940   0.61390   29.065
 4791.00    0.61234   0.61531   28.503
 4792.00    0.59673   0.61720   28.877
 4793.00    0.60826   0.61950   28.597
 4794.00    0.62364   0.62198   28.234
 4795.00    0.61786   0.62424   28.363
 4796.00    0.61171   0.62584   28.496
 4797.00    0.59363   0.62644   28.920
 4798.00    0.60242   0.62598   28.697
 4799.00    0.61955   0.62474   28.310
 4800.00    0.62030   0.62326   28.281
 4801.00    0.62390   0.62209   28.182
 4802.00    0.65191   0.62154   27.563
 4803.00    0.65370   0.62152   27.531
 4804.00    0.63357   0.62164   27.967
 4805.00    0.60996   0.62146   28.482
 4806.00    0.60610   0.62070   28.572
 4807.00    0.60800   0.61943   28.535
 4808.00    0.60862   0.61794   28.510
 4809.00    0.61264   0.61661   28.418
 4810.00    0.63060   0.61569   28.007
 4811.00    0.61198   0.61528   28.434
 4812.00    0.59605   0.61529   28.802
 4813.00    0.59678   0.61562   28.775
 4814.00    0.58038   0.61614   29.196
 4815.00    0.57392   0.61684   29.345
 4816.00    0.61243   0.61767   28.408
 4817.00    0.63893   0.61859   27.805
 4818.00    0.62677   0.61946   28.079
 4819.00    0.61925   0.62008   28.250
 4820.00    0.61639   0.62020   28.309
 4821.00    0.63338   0.61959   27.922
 4822.00    0.62823   0.61818   28.033
 4823.00    0.61230   0.61608   28.383
 4824.00    0.61868   0.61366   28.241
 4825.00    0.60600   0.61136   28.516
 4826.00    0.60268   0.60956   28.585
 4827.00    0.60823   0.60835   28.446
 4828.00    0.62162   0.60755   28.118
 4829.00    0.64457   0.60682   27.614
 4830.00    0.61181   0.60593   28.333
 4831.00    0.59717   0.60484   28.660
 4832.00    0.60194   0.60374   28.554
 4833.00    0.61643   0.60291   28.205
 4834.00    0.61493   0.60257   28.236
 4835.00    0.61670   0.60277   28.167
 4836.00    0.60849   0.60334   28.356
 4837.00    0.61754   0.60394   28.152
 4838.00    0.62935   0.60423   27.884
 4839.00    0.61800   0.60400   28.133
 4840.00    0.61690   0.60325   28.146
 4841.00    0.60205   0.60217   28.496
 4842.00    0.60154   0.60100   28.493
 4843.00    0.60447   0.59998   28.424
 4844.00    0.59142   0.59927   28.716
 4845.00    0.62502   0.59889   27.919
 4846.00    0.64391   0.59876   27.488
 4847.00    0.62706   0.59866   27.865
 4848.00    0.62667   0.59837   27.850
 4849.00    0.62149   0.59770   27.941
 4850.00    0.61579   0.59658   28.053
 4851.00    0.62306   0.59497   27.870
 4852.00    0.62684   0.59279   27.758
 4853.00    0.61871   0.58987   27.916
 4854.00    0.63994   0.58597   27.421
 4855.00    0.65893   0.58083   26.999
 4856.00    0.64460   0.57425   27.271
 4857.00    0.68491   0.56602    0.000
 4858.00    0.81398   0.55601    0.000
 4859.00    1.57479   0.54431    0.000
 4860.00    6.39266   0.53151    0.000
 4861.00   17.76734   0.51900    0.000
 4862.00   28.27791   0.50876    0.000
 4863.00   31.61609   0.50287    0.000
 4864.00   25.09724   0.50270    0.000
 4865.00   11.29487   0.50825    0.000
 4866.00    2.55652   0.51818    0.000
 4867.00    0.95834   0.53023    0.000
 4868.00    0.76428   0.54207    0.000
 4869.00    0.70375   0.55195    0.000
 4870.00    0.65897   0.55904    0.000
 4871.00    0.64093   0.56343   27.221
 4872.00    0.64446   0.56592   27.152
 4873.00    0.61620   0.56758   27.789
 4874.00    0.60968   0.56934   27.950
 4875.00    0.61097   0.57174   27.936
 4876.00    0.59509   0.57476   28.318
 4877.00    0.58523   0.57805   28.574
 4878.00    0.61003   0.58114   27.993
 4879.00    0.60951   0.58363   28.022
 4880.00    0.60325   0.58527   28.168
 4881.00    0.58736   0.58600   28.556
 4882.00    0.61889   0.58588   27.816
 4883.00    0.59289   0.58508   28.420
 4884.00    0.60272   0.58380   28.189
 4885.00    0.59133   0.58222   28.456
 4886.00    0.60625   0.58049   28.113
 4887.00    0.58130   0.57874   28.700
 4888.00    0.59513   0.57705   28.356
 4889.00    0.60217   0.57551   28.193
 4890.00    0.60695   0.57424   28.075
 4891.00    0.60126   0.57352   28.209
 4892.00    0.57330   0.57376   28.893
 4893.00    0.56767   0.57538   29.040
 4894.00    0.59202   0.57856   28.448
 4895.00    0.59794   0.58300   28.304
 4896.00    0.58304   0.58795   28.670
 4897.00    0.58541   0.59243   28.617
 4898.00    0.56341   0.59566   29.186
 4899.00    0.57264   0.59725   28.964
 4900.00    0.58710   0.59728   28.620
 4901.00    0.57800   0.59618   28.864
 4902.00    0.54321   0.59459   29.801
 4903.00    0.55916   0.59308   29.387
 4904.00    0.56827   0.59211   29.161
 4905.00    0.58134   0.59184   28.844
 4906.00    0.58312   0.59215   28.831
 4907.00    0.57012   0.59263   29.179
 4908.00    0.58651   0.59276   28.794
 4909.00    0.58852   0.59217   28.744
 4910.00    0.58245   0.59083   28.909
 4911.00    0.58123   0.58913   28.966
 4912.00    0.55582   0.58761   29.622
 4913.00    0.57364   0.58667   29.167
 4914.00    0.57762   0.58637    0.000
 4915.00    0.59014   0.58628    0.000
 4916.00    0.58650   0.58571    0.000
 4917.00    0.58512   0.58393    0.000
 4918.00    0.59605   0.58050    0.000
 4919.00    0.58670   0.57553    0.000
 4920.00    0.59881   0.56977    0.000
 4921.00    0.66417   0.56445    0.000
 4922.00    0.79861   0.56082    0.000
 4923.00    0.88774   0.55967    0.000
 4924.00    0.86269   0.56108    0.000
 4925.00    0.76559   0.56452    0.000
 4926.00    0.66123   0.56917    0.000
 4927.00    0.60364   0.57422    0.000
 4928.00    0.59725   0.57911    0.000
 4929.00    0.61021   0.58340   28.513
 4930.00    0.60519   0.58674   28.650
 4931.00    0.59534   0.58883   28.893
 4932.00    0.60442   0.58948   28.694
 4933.00    0.59396   0.58873   28.963
 4934.00    0.58191   0.58686   29.290
 4935.00    0.57572   0.58429   29.465
 4936.00    0.57730   0.58141   29.445
 4937.00    0.59812   0.57851   28.944
 4938.00    0.61935   0.57586   28.462
 4939.00    0.59327   0.57378   29.087
 4940.00    0.57717   0.57265   29.514
 4941.00    0.60504   0.57282   28.840
 4942.00    0.59429   0.57432   29.110
 4943.00    0.57363   0.57678    0.000
 4944.00    0.56397   0.57959    0.000
 4945.00    0.59912   0.58219    0.000
 4946.00    0.59541   0.58426    0.000
 4947.00    0.56394   0.58578    0.000
 4948.00    0.58407   0.58698    0.000
 4949.00    0.60257   0.58800    0.000
 4950.00    0.61640   0.58887    0.000
 4951.00    0.62971   0.58937    0.000
 4952.00    0.65437   0.58915    0.000
 4953.00    0.67361   0.58780    0.000
 4954.00    0.69610   0.58504    0.000
 4955.00    0.77614   0.58078    0.000
 4956.00    1.02309   0.57528    0.000
 4957.00    2.72077   0.56922    0.000
 4958.00   10.62263   0.56363    0.000
 4959.00   23.94856   0.55958    0.000
 4960.00   33.34705   0.55777    0.000
 4961.00   34.01662   0.55817    0.000
 4962.00   23.10146   0.56002    0.000
 4963.00    8.01070   0.56218    0.000
 4964.00    1.69058   0.56365    0.000
 4965.00    0.90538   0.56392    0.000
 4966.00    0.78252   0.56311    0.000
 4967.00    0.71387   0.56173    0.000
 4968.00    0.66986   0.56047    0.000
 4969.00    0.64408   0.55989    0.000
 4970.00    0.63263   0.56025    0.000
 4971.00    0.61166   0.56155    0.000
 4972.00    0.61253   0.56350   28.958
 4973.00    0.59669   0.56569   29.351
 4974.00    0.59584   0.56763   29.368
 4975.00    0.60515   0.56893   29.129
 4976.00    0.59237   0.56931   29.451
 4977.00    0.60150   0.56865   29.240
 4978.00    0.60138   0.56697   29.235
 4979.00    0.57279   0.56438   29.960
 4980.00    0.56985   0.56101   30.033
 4981.00    0.58835   0.55710   29.561
 4982.00    0.57768   0.55299   29.842
 4983.00    0.59092   0.54916   29.503
 4984.00    0.56019   0.54623   30.300
 4985.00    0.60063   0.54473   29.289
 4986.00    0.64508   0.54492   28.255
 4987.00    0.63425   0.54660   28.506
 4988.00    0.64155   0.54919   28.329
 4989.00    0.65711   0.55192   27.990
 4990.00    0.62216   0.55419   28.774
 4991.00    0.60893   0.55571   29.080
 4992.00    0.59734   0.55658   29.371
 4993.00    0.61420   0.55706   28.966
 4994.00    0.59517   0.55740   29.427
 4995.00    0.57666   0.55768    0.000
 4996.00    0.57873   0.55777    0.000
 4997.00    0.64155   0.55743    0.000
 4998.00    0.68515   0.55639    0.000
 4999.00    0.67423   0.55452    0.000
 5000.00    0.70657   0.55193    0.000
 5001.00    0.78487   0.54894    0.000
 5002.00    0.92990   0.54597    0.000
 5003.00    1.17550   0.54337    0.000
 5004.00    1.82042   0.54132    0.000
 5005.00    7.47188   0.53978    0.000
 5006.00   32.69322   0.53870    0.000
 5007.00   72.86333   0.53807    0.000
 5008.00  100.22974   0.53792    0.000
 5009.00  100.75279   0.53817    0.000
 5010.00   66.47768   0.53854    0.000
 5011.00   21.65121   0.53855   -1.000
 5012.00    3.77299   0.53776   -1.000
 5013.00    1.55564   0.53603   -1.000
 5014.00    1.23565   0.53361   -1.000
 5015.00    1.19543   0.53113   -1.000
 5016.00    1.30004   0.52925   -1.000
 5017.00    1.39339   0.52846   -1.000
 5018.00    1.34388   0.52884   -1.000
 5019.00    1.01555   0.53012   -1.000
 5020.00    0.71853   0.53184   -1.000
 5021.00    0.61607   0.53356   28.732
 5022.00    0.60511   0.53503   28.973
 5023.00    0.60578   0.53623   28.963
 5024.00    0.61095   0.53727   28.839
 5025.00    0.59270   0.53828   29.284
 5026.00    0.57786   0.53929   29.641
 5027.00    0.56928   0.54028   29.852
 5028.00    0.55933   0.54124   30.111
 5029.00    0.55314   0.54228   30.287
 5030.00    0.57512   0.54355   29.703
 5031.00    0.58825   0.54515   29.370
 5032.00    0.57242   0.54692   29.760
 5033.00    0.57230   0.54847   29.766
 5034.00    0.56951   0.54928   29.842
 5035.00    0.53894   0.54892   30.685
 5036.00    0.56090   0.54724   30.080
 5037.00    0.55459   0.54437   30.246
 5038.00    0.54899   0.54065   30.403
 5039.00    0.55573   0.53656   30.221
 5040.00    0.56254   0.53260   30.034
 5041.00    0.56740   0.52941   29.889
 5042.00    0.57032   0.52762   29.827
 5043.00    0.58278   0.52775   29.502
 5044.00    0.56704   0.52987   29.895
 5045.00    0.55561   0.53348   30.205
 5046.00    0.52615   0.53756   31.036
 5047.00    0.51613   0.54096   31.328
 5048.00    0.57380   0.54283   29.714
 5049.00    0.62059   0.54289   28.570
 5050.00    0.63451   0.54155   28.250
 5051.00    0.60228   0.53963   28.992
 5052.00    0.56436   0.53801   29.956
 5053.00    0.54360   0.53733   30.524
 5054.00    0.56428   0.53780   29.941
 5055.00    0.54782   0.53925   30.403
 5056.00    0.51173   0.54129   31.444
 5057.00    0.53806   0.54352   30.666
 5058.00    0.54744   0.54567   30.413
 5059.00    0.54333   0.54756   30.527
 5060.00    0.53531   0.54906   30.746
 5061.00    0.53955   0.54999   30.640
 5062.00    0.54028   0.55010   30.626
 5063.00    0.54437   0.54915   30.510
 5064.00    0.54095   0.54709   30.607
 5065.00    0.54481   0.54413   30.505
 5066.00    0.54276   0.54075   30.562
 5067.00    0.53028   0.53754   30.920
 5068.00    0.51358   0.53498   31.433
 5069.00    0.52439   0.53331   31.106
 5070.00    0.52873   0.53248   30.977
 5071.00    0.52071   0.53226   31.207
 5072.00    0.53320   0.53236   30.854
 5073.00    0.54077   0.53256   30.637
 5074.00    0.53344   0.53270   30.859
 5075.00    0.53273   0.53267   30.887
 5076.00    0.53378   0.53235   30.855
 5077.00    0.54433   0.53155   30.555
 5078.00    0.54226   0.53017   30.602
 5079.00    0.54185   0.52818   30.616
 5080.00    0.53838   0.52581   30.733
 5081.00    0.53962   0.52344   30.689
 5082.00    0.55491   0.52155   30.267
 5083.00    0.52151   0.52054   31.217
 5084.00    0.50125   0.52059   31.847
 5085.00    0.52963   0.52166   30.985
 5086.00    0.55540   0.52348   30.254
 5087.00    0.52089   0.52571   31.231
 5088.00    0.51802   0.52801   31.333
 5089.00    0.53684   0.53014   30.774
 5090.00    0.53016   0.53198   30.950
 5091.00    0.52973   0.53351   30.977
 5092.00    0.52819   0.53471   31.015
 5093.00    0.53405   0.53549   30.860
 5094.00    0.55734   0.53568   30.198
 5095.00    0.54890   0.53507   30.431
 5096.00    0.51318   0.53355   31.484
 5097.00    0.50690   0.53123   31.684
 5098.00    0.50483   0.52847   31.741
 5099.00    0.50280   0.52579   31.814
 5100.00    0.52248   0.52367   31.201
 5101.00    0.52385   0.52239   31.157
 5102.00    0.52994   0.52194   30.982
 5103.00    0.55387   0.52203   30.317
 5104.00    0.55873   0.52225   30.191
 5105.00    0.55699   0.52221   30.229
 5106.00    0.53839   0.52171   30.742
 5107.00    0.55537   0.52079   30.281
 5108.00    0.51948   0.51965   31.320
 5109.00    0.52223   0.51859   31.234
 5110.00    0.52167   0.51790   31.254
 5111.00    0.51580   0.51782   31.434
 5112.00    0.52786   0.51842   31.077
 5113.00    0.52309   0.51968   31.211
 5114.00    0.55017   0.52148   30.451
 5115.00    0.56758   0.52361   29.966
 5116.00    0.53936   0.52583   30.742
 5117.00    0.50313   0.52784   31.829
 5118.00    0.53357   0.52932   30.904
 5119.00    0.54140   0.52996   30.674
 5120.00    0.49824   0.52955   31.979
 5121.00    0.49954   0.52801   31.927
 5122.00    0.51953   0.52547   31.305
 5123.00    0.51959   0.52224   31.299
 5124.00    0.52152   0.51876   31.254
 5125.00    0.53701   0.51550   30.795
 5126.00    0.54681   0.51283   30.486
 5127.00    0.53808   0.51098   30.746
 5128.00    0.52318   0.51003   31.172
 5129.00    0.53787   0.50992   30.740
 5130.00    0.52643   0.51054   31.067
 5131.00    0.48952   0.51175   32.204
 5132.00    0.49557   0.51343   31.995
 5133.00    0.51207   0.51537   31.481
 5134.00    0.53065   0.51732   30.914
 5135.00    0.52730   0.51894   31.003
 5136.00    0.53488   0.51997   30.789
 5137.00    0.52824   0.52023   30.983
 5138.00    0.51351   0.51972   31.403
 5139.00    0.49804   0.51862   31.882
 5140.00    0.52308   0.51723   31.100
 5141.00    0.52207   0.51584   31.111
 5142.00    0.50631   0.51464   31.588
 5143.00    0.50750   0.51365   31.545
 5144.00    0.52311   0.51276   31.075
 5145.00    0.54323   0.51184   30.480
 5146.00    0.53474   0.51079   30.709
 5147.00    0.50776   0.50966   31.521
 5148.00    0.51048   0.50853   31.422
 5149.00    0.52250   0.50749   31.041
 5150.00    0.50460   0.50656   31.593
 5151.00    0.50671   0.50570   31.523
 5152.00    0.51523   0.50490   31.252
 5153.00    0.51866   0.50428   31.147
 5154.00    0.51372   0.50412   31.267
 5155.00    0.51924   0.50476   31.099
 5156.00    0.53454   0.50645   30.651
 5157.00    0.50264   0.50914   31.604
 5158.00    0.49539   0.51245   31.830
 5159.00    0.53354   0.51573   30.650
 5160.00    0.52232   0.51826   30.968
 5161.00    0.51278   0.51942   31.254
 5162.00    0.50445   0.51879   31.497
 5163.00    0.50930   0.51617   31.340
 5164.00    0.50383   0.51156   31.495
 5165.00    0.52356   0.50513   30.891
 5166.00    0.49961   0.49732   31.619
 5167.00    0.48420   0.48884   32.110
 5168.00    0.51817   0.48058   31.023
 5169.00    0.48975   0.47339   31.909
 5170.00    0.49308   0.46785   31.806
 5171.00    0.52858   0.46413   30.700
 5172.00    0.49633   0.46212   31.672
 5173.00    0.53390   0.46167   30.511
 5174.00    0.53221   0.46275   30.549
 5175.00    0.52618   0.46535   30.737
 5176.00    0.50469   0.46922   31.372
 5177.00    0.50826   0.47376   31.247
 5178.00    0.54074   0.47800   30.299
 5179.00    0.52108   0.48090   30.850
 5180.00    0.50371   0.48170   31.359
 5181.00    0.50822   0.48020   31.195
 5182.00    0.50280   0.47686   31.361
 5183.00    0.50022   0.47274   31.455
 5184.00    0.52269   0.46922   30.759
 5185.00    0.52894   0.46761   30.566
 5186.00    0.51856   0.46863   30.861
 5187.00    0.53489   0.47218   30.379
 5188.00    0.50365   0.47738   31.309
 5189.00    0.49639   0.48291   31.536
 5190.00    0.46443   0.48750    0.000
 5191.00    0.44711   0.49042    0.000
 5192.00    0.47620   0.49156    0.000
 5193.00    0.50098   0.49143    0.000
 5194.00    0.49079   0.49084    0.000
 5195.00    0.48567   0.49060    0.000
 5196.00    0.48588   0.49119    0.000
 5197.00    0.50202   0.49271    0.000
 5198.00    0.51421   0.49486    0.000
 5199.00    0.53503   0.49708    0.000
 5200.00    0.54078   0.49875    0.000
 5201.00    0.54893   0.49928    0.000
 5202.00    0.53713   0.49828    0.000
 5203.00    0.50840   0.49557    0.000
 5204.00    0.50994   0.49130    0.000
 5205.00    0.49171   0.48589    0.000
 5206.00    0.50811   0.48005   31.079
 5207.00    0.50920   0.47464   31.034
 5208.00    0.49262   0.47054   31.554
 5209.00    0.49686   0.46848   31.404
 5210.00    0.48506   0.46885   31.769
 5211.00    0.49258   0.47163   31.522
 5212.00    0.49526   0.47634   31.442
 5213.00    0.47620   0.48214   32.048
 5214.00    0.48143   0.48802   31.864
 5215.00    0.46407   0.49317   32.447
 5216.00    0.46787   0.49713   32.314
 5217.00    0.47942   0.49994   31.893
 5218.00    0.47509   0.50198   32.037
 5219.00    0.48877   0.50362   31.581
 5220.00    0.50126   0.50500   31.176
 5221.00    0.49722   0.50587   31.294
 5222.00    0.52301   0.50575   30.498
 5223.00    0.50091   0.50420   31.173
 5224.00    0.47434   0.50111   32.033
 5225.00    0.45714   0.49689   32.624
 5226.00    0.50994   0.49241   30.868
 5227.00    0.49195   0.48875   31.412
 5228.00    0.47392   0.48681   32.010
 5229.00    0.49550   0.48696   31.283
 5230.00    0.50050   0.48888   31.138
 5231.00    0.50352   0.49180   31.041
 5232.00    0.49655   0.49480   31.236
 5233.00    0.49744   0.49723   31.216
 5234.00    0.50451   0.49896   30.989
 5235.00    0.48548   0.50032   31.604
 5236.00    0.48665   0.50176   31.560
 5237.00    0.49892   0.50358   31.144
 5238.00    0.50271   0.50572   31.020
 5239.00    0.50146   0.50786   31.072
 5240.00    0.49087   0.50961   31.402
 5241.00    0.49968   0.51072   31.124
 5242.00    0.49561   0.51115   31.248
 5243.00    0.48229   0.51096   31.681
 5244.00    0.48405   0.51020   31.621
 5245.00    0.47856   0.50886   31.782
 5246.00    0.46996   0.50688   32.086
 5247.00    0.48119   0.50433   31.707
 5248.00    0.48211   0.50142   31.675
 5249.00    0.50193   0.49854   31.041
 5250.00    0.48601   0.49612   31.546
 5251.00    0.47586   0.49445   31.869
 5252.00    0.48198   0.49366   31.664
 5253.00    0.48669   0.49372   31.507
 5254.00    0.47942   0.49450   31.743
 5255.00    0.48531   0.49587   31.546
 5256.00    0.49160   0.49771   31.331
 5257.00    0.46418   0.49981   32.242
 5258.00    0.46712   0.50182   32.127
 5259.00    0.49424   0.50323   31.236
 5260.00    0.47427   0.50344   31.876
 5261.00    0.45876   0.50195   32.396
 5262.00    0.46940   0.49856   32.020
 5263.00    0.46929   0.49349   32.010
 5264.00    0.47947   0.48736   31.662
 5265.00    0.47879   0.48097   31.667
 5266.00    0.48837   0.47508   31.363
 5267.00    0.48876   0.47020   31.339
 5268.00    0.49310   0.46657   31.174
 5269.00    0.47049   0.46425   31.927
 5270.00    0.47570   0.46327   31.730
 5271.00    0.49702   0.46372   31.013
 5272.00    0.48694   0.46571   31.327
 5273.00    0.47865   0.46916   31.576
 5274.00    0.47969   0.47378   31.537
 5275.00    0.48657   0.47904   31.329
 5276.00    0.47958   0.48434   31.535
 5277.00    0.48913   0.48920   31.241
 5278.00    0.47545   0.49324   31.688
 5279.00    0.46180   0.49622   32.139
 5280.00    0.48016   0.49794   31.534
 5281.00    0.49061   0.49839   31.181
 5282.00    0.47794   0.49782   31.588
 5283.00    0.47613   0.49680   31.646
 5284.00    0.47890   0.49606   31.564
 5285.00    0.50286   0.49627   30.786
 5286.00    0.49026   0.49774   31.194
 5287.00    0.47117   0.50026   31.825
 5288.00    0.48773   0.50330   31.270
 5289.00    0.47755   0.50619   31.590
 5290.00    0.45979   0.50841   32.197
 5291.00    0.45493   0.50970   32.375
 5292.00    0.46338   0.51002   32.079
 5293.00    0.43905   0.50940   32.943
 5294.00    0.46422   0.50785   32.040
 5295.00    0.49960   0.50536   30.870
 5296.00    0.47571   0.50200   31.614
 5297.00    0.47645   0.49806   31.584
 5298.00    0.50045   0.49406   30.813
 5299.00    0.47352   0.49067   31.675
 5300.00    0.46076   0.48856   32.089
